File: examples/mos2/reference/raman_spectra3.dat
#Raman spectra
#Laser energy   2.54 eV
#Raman shift (cm-1), Raman Spectra (XX,YY,ZZ,s+s+,s-s-,XY,YX,s+s-,s-s+)
   350.0000  125.671  122.27  66.4692  67.5697  67.0936  55.7567  54.9235  112  111.957
   350.2506  127.197  123.756  67.1021  68.2133  67.7328  56.6083  55.7623  113.711  113.667
   350.5013  128.754  125.271  67.7442  68.8661  68.3811  57.4796  56.6205  115.461  115.417
   350.7519  130.341  126.816  68.3954  69.5283  69.0388  58.3711  57.4987  117.252  117.207
   351.0025  131.959  128.39  69.0561  70.2001  69.7061  59.2836  58.3975  119.085  119.039
   351.2531  133.609  129.997  69.7264  70.8817  70.3831  60.2176  59.3175  120.961  120.915
   351.5038  135.292  131.635  70.4066  71.5733  71.0699  61.1739  60.2595  122.882  122.835
   351.7544  137.009  133.306  71.0967  72.2751  71.7669  62.1532  61.2241  124.849  124.801
   352.0050  138.761  135.011  71.797  72.9872  72.4743  63.1562  62.2121  126.864  126.816
   352.2556  140.549  136.752  72.5077  73.7099  73.1921  64.1837  63.2242  128.928  128.879
   352.5063  142.374  138.528  73.2291  74.4434  73.9206  65.2365  64.2612  131.043  130.993
   352.7569  144.237  140.341  73.9612  75.1879  74.6601  66.3155  65.324  133.21  133.159
   353.0075  146.139  142.193  74.7044  75.9436  75.4107  67.4214  66.4134  135.432  135.38
   353.2581  148.082  144.083  75.4588  76.7108  76.1727  68.5553  67.5302  137.71  137.657
   353.5088  150.065  146.014  76.2247  77.4897  76.9464  69.718  68.6755  140.045  139.992
   353.7594  152.092  147.987  77.0024  78.2805  77.7319  70.9105  69.8502  142.441  142.386
   354.0100  154.163  150.002  77.792  79.0835  78.5294  72.134  71.0553  144.899  144.843
   354.2607  156.279  152.062  78.5938  79.8989  79.3394  73.3893  72.2919  147.42  147.364
   354.5113  158.442  154.168  79.408  80.7269  80.1619  74.6778  73.561  150.008  149.951
   354.7619  160.653  156.32  80.235  81.5679  80.9973  76.0005  74.8639  152.665  152.607
   355.0125  162.914  158.521  81.075  82.4222  81.8458  77.3586  76.2017  155.394  155.334
   355.2632  165.227  160.772  81.9282  83.2899  82.7077  78.7535  77.5756  158.196  158.135
   355.5138  167.593  163.075  82.795  84.1714  83.5833  80.1865  78.9871  161.074  161.012
   355.7644  170.013  165.431  83.6755  85.067  84.4729  81.6589  80.4375  164.032  163.969
   356.0150  172.49  167.843  84.5703  85.9769  85.3768  83.1723  81.9282  167.072  167.008
   356.2657  175.026  170.311  85.4794  86.9015  86.2953  84.7281  83.4607  170.197  170.132
   356.5163  177.622  172.838  86.4032  87.8412  87.2287  86.328  85.0366  173.411  173.345
   356.7669  180.281  175.427  87.3422  88.7961  88.1773  87.9736  86.6575  176.717  176.649
   357.0175  183.005  178.078  88.2965  89.7667  89.1415  89.6667  88.3253  180.118  180.049
   357.2682  185.795  180.794  89.2665  90.7533  90.1216  91.4092  90.0416  183.618  183.548
   357.5188  188.655  183.578  90.2526  91.7563  91.118  93.2029  91.8085  187.221  187.149
   357.7694  191.587  186.432  91.2551  92.776  92.131  95.05  93.6278  190.931  190.858
   358.0201  194.593  189.359  92.2744  93.8128  93.161  96.9525  95.5018  194.753  194.678
   358.2707  197.675  192.36  93.3109  94.8671  94.2083  98.9126  97.4325  198.69  198.614
   358.5213  200.838  195.439  94.365  95.9392  95.2735  100.933  99.4224  202.749  202.671
   358.7719  204.084  198.598  95.437  97.0297  96.3568  103.015  101.474  206.932  206.853
   359.0226  207.415  201.842  96.5274  98.1388  97.4587  105.163  103.589  211.246  211.166
   359.2732  210.836  205.172  97.6365  99.2671  98.5796  107.379  105.772  215.697  215.614
   359.5238  214.349  208.592  98.7649  100.415  99.72  109.665  108.024  220.289  220.205
   359.7744  217.958  212.106  99.9129  101.583  100.88  112.025  110.348  225.03  224.944
   360.0251  221.667  215.717  101.081  102.771  102.061  114.462  112.749  229.926  229.838
   360.2757  225.48  219.429  102.27  103.981  103.263  116.979  115.228  234.982  234.892
   360.5263  229.401  223.247  103.48  105.211  104.485  119.581  117.791  240.207  240.115
   360.7769  233.435  227.174  104.711  106.464  105.73  122.269  120.439  245.609  245.515
   361.0276  237.585  231.215  105.965  107.74  106.997  125.05  123.178  251.194  251.098
   361.2782  241.858  235.375  107.241  109.038  108.288  127.926  126.011  256.972  256.873
   361.5288  246.258  239.659  108.54  110.36  109.601  130.903  128.943  262.951  262.85
   361.7794  250.79  244.071  109.864  111.706  110.939  133.984  131.978  269.141  269.038
   362.0301  255.46  248.619  111.211  113.077  112.301  137.176  135.122  275.552  275.446
   362.2807  260.274  253.306  112.583  114.474  113.689  140.483  138.379  282.194  282.086
   362.5313  265.24  258.141  113.981  115.896  115.102  143.91  141.756  289.079  288.969
   362.7820  270.363  263.129  115.406  117.345  116.542  147.465  145.257  296.219  296.106
   363.0326  275.65  268.277  116.857  118.822  118.01  151.152  148.889  303.626  303.51
   363.2832  281.11  273.593  118.335  120.327  119.505  154.98  152.659  311.315  311.196
   363.5338  286.75  279.085  119.842  121.86  121.029  158.954  156.574  319.298  319.176
   363.7845  292.579  284.761  121.377  123.423  122.582  163.083  160.641  327.592  327.467
   364.0351  298.605  290.63  122.943  125.016  124.165  167.375  164.868  336.213  336.084
   364.2857  304.84  296.701  124.539  126.64  125.78  171.838  169.264  345.178  345.046
   364.5363  311.293  302.984  126.166  128.296  127.425  176.481  173.838  354.505  354.37
   364.7870  317.974  309.491  127.825  129.985  129.104  181.315  178.6  364.215  364.076
   365.0376  324.897  316.232  129.517  131.708  130.816  186.35  183.559  374.329  374.186
   365.2882  332.072  323.22  131.243  133.464  132.562  191.597  188.727  384.868  384.721
   365.5388  339.515  330.467  133.004  135.257  134.344  197.069  194.117  395.859  395.707
   365.7895  347.238  337.988  134.8  137.085  136.162  202.777  199.739  407.325  407.17
   366.0401  355.257  345.797  136.633  138.951  138.017  208.737  205.609  419.296  419.136
   366.2907  363.588  353.911  138.504  140.856  139.91  214.962  211.741  431.801  431.636
   366.5414  372.25  362.346  140.413  142.8  141.842  221.469  218.151  444.872  444.702
   366.7920  381.26  371.121  142.362  144.784  143.815  228.276  224.856  458.544  458.369
   367.0426  390.639  380.255  144.352  146.81  145.83  235.4  231.873  472.854  472.673
   367.2932  400.409  389.771  146.383  148.88  147.887  242.862  239.223  487.842  487.656
   367.5439  410.594  399.69  148.458  150.993  149.988  250.683  246.927  503.552  503.36
   367.7945  421.218  410.037  150.578  153.151  152.134  258.887  255.008  520.031  519.833
   368.0451  432.309  420.839  152.743  155.356  154.327  267.499  263.49  537.329  537.124
   368.2957  443.897  432.125  154.955  157.61  156.568  276.546  272.402  555.502  555.29
   368.5464  456.013  443.926  157.215  159.912  158.858  286.058  281.771  574.609  574.389
   368.7970  468.692  456.275  159.525  162.266  161.199  296.068  291.631  594.715  594.488
   369.0476  481.973  469.211  161.887  164.672  163.592  306.61  302.015  615.89  615.655
   369.2982  495.895  482.771  164.301  167.132  166.039  317.723  312.961  638.211  637.968
   369.5489  510.504  497  166.769  169.648  168.541  329.449  324.51  661.763  661.511
   369.7995  525.848  511.946  169.294  172.221  171.101  341.832  336.708  686.637  686.375
   370.0501  541.98  527.659  171.876  174.853  173.72  354.924  349.603  712.933  712.661
   370.3008  558.958  544.198  174.518  177.546  176.4  368.778  363.25  740.761  740.478
   370.5514  576.847  561.623  177.221  180.302  179.142  383.456  377.707  770.241  769.948
   370.8020  595.716  580.003  179.988  183.123  181.949  399.022  393.04  801.507  801.202
   371.0526  615.642  599.413  182.82  186.011  184.823  415.55  409.32  834.705  834.387
   371.3033  636.71  619.936  185.719  188.967  187.766  433.12  426.626  869.996  869.664
   371.5539  659.014  641.664  188.687  191.995  190.781  451.821  445.047  907.558  907.212
   371.8045  682.658  664.696  191.727  195.097  193.869  471.752  464.679  947.59  947.228
   372.0551  707.755  689.145  194.841  198.275  197.033  493.022  485.629  990.311  989.933
   372.3058  734.435  715.136  198.032  201.531  200.276  515.752  508.018  1035.96  1035.57
   372.5564  762.839  742.807  201.301  204.869  203.6  540.079  531.98  1084.82  1084.41
   372.8070  793.127  772.314  204.652  208.291  207.009  566.154  557.663  1137.2  1136.76
   373.0576  825.476  803.829  208.087  211.8  210.505  594.146  585.236  1193.42  1192.96
   373.3083  860.085  837.547  211.61  215.398  214.091  624.248  614.886  1253.88  1253.4
   373.5589  897.18  873.686  215.223  219.09  217.77  656.675  646.826  1319  1318.5
   373.8095  937.013  912.494  218.928  222.878  221.547  691.668  681.294  1389.29  1388.76
   374.0602  979.871  954.249  222.731  226.766  225.424  729.504  718.562  1465.28  1464.72
   374.3108  1026.08  999.269  226.633  230.758  229.405  770.495  758.938  1547.6  1547.01
   374.5614  1076.01  1047.92  230.638  234.857  233.494  814.998  802.772  1636.98  1636.36
   374.8120  1130.08  1100.6  234.751  239.067  237.696  863.419  850.467  1734.23  1733.57
   375.0627  1188.78  1157.79  238.974  243.393  242.014  916.226  902.481  1840.29  1839.58
   375.3133  1252.66  1220.04  243.312  247.839  246.454  973.956  959.344  1956.23  1955.48
   375.5639  1322.38  1287.96  247.77  252.409  251.021  1037.23  1021.67  2083.3  2082.51
   375.8145  1398.67  1362.3  252.35  257.109  255.718  1106.77  1090.16  2222.96  2222.11
   376.0652  1482.4  1443.88  257.059  261.944  260.554  1183.41  1165.66  2376.88  2375.97
   376.3158  1574.59  1533.71  261.901  266.92  265.532  1268.14  1249.12  2547.04  2546.07
   376.5664  1676.42  1632.94  266.881  272.042  270.66  1362.11  1341.67  2735.74  2734.7
   376.8170  1789.31  1742.94  272.003  277.316  275.944  1466.67  1444.66  2945.73  2944.6
   377.0677  1914.92  1865.33  277.275  282.75  281.392  1583.44  1559.68  3180.23  3179.01
   377.3183  2055.22  2002.05  282.701  288.35  287.012  1714.35  1688.62  3443.09  3441.78
   377.5689  2212.59  2155.39  288.288  294.124  292.813  1861.68  1833.74  3738.95  3737.52
   377.8195  2389.89  2328.16  294.042  300.081  298.804  2028.2  1997.76  4073.35  4071.78
   378.0702  2590.56  2523.71  299.969  306.229  304.995  2217.28  2184  4453.01  4451.31
   378.3208  2818.81  2746.13  306.078  312.579  311.399  2432.97  2396.46  4886.13  4884.26
   378.5714  3079.77  3000.43  312.375  319.142  318.029  2680.28  2640.06  5382.72  5380.66
   378.8221  3379.77  3292.77  318.867  325.929  324.9  2965.34  2920.83  5955.09  5952.8
   379.0727  3726.6  3630.75  325.564  332.953  332.028  3295.72  3246.25  6618.44  6615.9
   379.3233  4129.95  4023.81  332.474  340.231  339.432  3680.83  3625.58  7391.68  7388.83
   379.5739  4601.86  4483.69  339.606  347.779  347.136  4132.37  4070.35  8298.27  8295.08
   379.8246  5157.34  5025.01  346.97  355.616  355.165  4664.94  4594.91  9367.52  9363.91
   380.0752  5815.06  5665.97  354.575  363.765  363.551  5296.65  5217.14  10635.8  10631.7
   380.3258  6598.05  6429  362.432  372.252  372.329  6049.91  5959.1  12148.1  12143.4
   380.5764  7534.33  7341.43  370.554  381.107  381.542  6951.95  6847.59  13959  13953.6
   380.8271  8656.98  8435.48  378.951  390.363  391.238  8034.87  7914.26  16133.1  16126.9
   381.0777  10002.8  9747.02  387.636  400.057  401.471  9334.43  9194.3  18742.1  18734.9
   381.3283  11608.1  11311.4  396.623  410.226  412.293  10885.8  10722.4  21856.8  21848.3
   381.5789  13498.4  13153.6  405.925  420.901  423.748  12713.6  12522.8  25526.8  25516.9
   381.8296  15669  15268.9  415.558  432.093  435.844  14812.9  14590.6  29742.5  29731
   382.0802  18051.8  17591  425.537  443.775  448.523  17117  16860.1  34370.4  34357.2
   382.3308  20474.3  19951.8  435.879  455.85  461.609  19457.5  19165.3  39073.2  39058.2
   382.5815  22633.5  22056.1  446.602  468.139  474.786  21539.1  21215.8  43259  43242.5
   382.8321  24134  23518.3  457.725  480.404  487.637  22977.9  22632.9  46156.3  46138.8
   383.0827  24624.6  23996.4  469.267  492.436  499.795  23433.9  23082.1  47081.3  47063.6
   383.3333  23978.3  23366.5  481.25  504.177  511.145  22786.2  22444.1  45788.4  45771.4
   383.5840  22368.1  21797.3  493.696  515.762  521.901  21204.6  20886.3  42617.2  42601.4
   383.8346  20165  19650.2  506.631  527.458  532.498  19050.2  18764.3  38291.9  38277.8
   384.0852  17756.1  17302.6  520.079  539.544  543.387  16698.4  16447.7  33567.1  33554.8
   384.3358  15423.8  15029.6  534.068  552.23  554.908  14421.8  14205.3  28992  28981.4
   384.5865  13320.9  12980.1  548.628  565.644  567.257  12368.2  12182.5  24863.9  24854.8
   384.8371  11502.5  11208  563.791  579.856  580.527  10590.3  10431.3  21289.8  21282
   385.0877  9966.86  9711.4  579.589  594.896  594.748  9086.01  8949.62  18265.5  18258.8
   385.3383  8685.49  8462.6  596.059  610.784  609.926  7827.65  7710.15  15735.5  15729.7
   385.5890  7621.65  7425.78  613.239  627.534  626.058  6779.42  6677.67  13628  13623
   385.8396  6739  6565.54  631.17  645.165  643.147  5906.06  5817.41  11872  11867.7
   386.0902  6005.3  5850.46  649.897  663.7  661.202  5176.25  5098.57  10404.8  10400.9
   386.3409  5393.43  5254.11  669.468  683.171  680.239  4563.68  4495.19  9173.18  9169.81
   386.5915  4881.17  4754.82  689.933  703.615  700.288  4046.74  3986.01  8133.92  8130.92
   386.8421  4450.56  4335.1  711.348  725.076  721.383  3607.98  3553.85  7251.86  7249.18
   387.0927  4087.19  3980.92  733.773  747.605  743.569  3233.39  3184.88  6498.81  6496.41
   387.3434  3779.51  3681  757.27  771.261  766.897  2911.71  2868.03  5852.13  5849.96
   387.5940  3518.26  3426.31  781.911  796.107  791.428  2633.88  2594.37  5293.62  5291.66
   387.8446  3295.97  3209.6  807.769  822.214  817.227  2392.61  2356.72  4808.62  4806.84
   388.0952  3106.63  3024.99  834.927  849.662  844.372  2181.99  2149.27  4385.24  4383.61
   388.3459  2945.37  2867.75  863.472  878.536  872.945  1997.21  1967.26  4013.8  4012.31
   388.5965  2808.23  2734.01  893.499  908.931  903.038  1834.33  1806.83  3686.4  3685.02
   388.8471  2691.97  2620.61  925.114  940.952  934.752  1690.12  1664.78  3396.52  3395.25
   389.0977  2593.95  2524.98  958.429  974.71  968.199  1561.89  1538.49  3138.79  3137.61
   389.3484  2511.99  2445.01  993.568  1010.33  1003.5  1447.43  1425.75  2908.72  2907.63
   389.5990  2444.33  2378.95  1030.67  1047.95  1040.79  1344.88  1324.73  2702.58  2701.56
   389.8496  2389.49  2325.38  1069.87  1087.71  1080.22  1252.66  1233.9  2517.22  2516.27
   390.1003  2346.27  2283.14  1111.34  1129.79  1121.94  1169.46  1151.95  2349.99  2349.1
   390.3509  2313.72  2251.28  1155.26  1174.35  1166.14  1094.15  1077.78  2198.64  2197.81
   390.6015  2291.04  2229.04  1201.82  1221.6  1213.01  1025.8  1010.45  2061.25  2060.47
   390.8521  2277.61  2215.8  1251.23  1271.76  1262.76  963.575  949.164  1936.18  1935.45
   391.1028  2272.95  2211.1  1303.73  1325.06  1315.64  906.778  893.222  1822.02  1821.33
   391.3534  2276.71  2214.59  1359.59  1381.77  1371.9  854.804  842.031  1717.56  1716.9
   391.6040  2288.64  2226.03  1419.09  1442.18  1431.84  807.129  795.075  1621.73  1621.11
   391.8546  2308.6  2245.29  1482.56  1506.63  1495.79  763.297  751.904  1533.63  1533.04
   392.1053  2336.55  2272.32  1550.34  1575.46  1564.09  722.911  712.127  1452.46  1451.9
   392.3559  2372.54  2307.17  1622.85  1649.1  1637.16  685.623  675.401  1377.51  1376.97
   392.6065  2416.71  2349.98  1700.52  1727.98  1715.44  651.127  641.426  1308.17  1307.66
   392.8571  2469.3  2400.97  1783.86  1812.62  1799.43  619.154  609.937  1243.9  1243.41
   393.1078  2530.63  2460.47  1873.41  1903.58  1889.7  589.467  580.7  1184.22  1183.76
   393.3584  2601.14  2528.88  1969.82  2001.5  1986.88  561.855  553.507  1128.72  1128.28
   393.6090  2681.35  2606.73  2073.79  2107.1  2091.69  536.132  528.175  1077.01  1076.58
   393.8596  2771.92  2694.65  2186.12  2221.2  2204.93  512.131  504.539  1028.76  1028.35
   394.1103  2873.63  2793.41  2307.73  2344.72  2327.53  489.704  482.454  983.671  983.276
   394.3609  2987.42  2903.89  2439.65  2478.72  2460.52  468.717  461.788  941.476  941.095
   394.6115  3114.36  3027.16  2583.06  2624.4  2605.1  449.052  442.425  901.935  901.568
   394.8622  3255.75  3164.47  2739.32  2783.13  2762.64  430.602  424.258  864.834  864.478
   395.1128  3413.09  3317.28  2909.99  2956.5  2934.72  413.27  407.194  829.978  829.634
   395.3634  3588.12  3487.28  3096.87  3146.33  3123.13  396.97  391.147  797.193  796.859
   395.6140  3782.91  3676.49  3302.04  3354.75  3329.99  381.623  376.04  766.322  765.996
   395.8647  3999.87  3887.23  3527.92  3584.21  3557.74  367.158  361.802  737.22  736.902
   396.1153  4241.84  4122.28  3777.33  3837.58  3809.22  353.512  348.372  709.759  709.448
   396.3659  4512.16  4384.87  4053.6  4118.23  4087.78  340.626  335.691  683.821  683.516
   396.6165  4814.78  4678.84  4360.63  4430.12  4397.35  328.446  323.708  659.299  659
   396.8672  5154.39  5008.76  4703.03  4777.96  4742.59  316.926  312.376  636.097  635.803
   397.1178  5536.59  5380.05  5086.31  5167.31  5129.05  306.022  301.653  614.127  613.836
   397.3684  5968.09  5799.24  5517.02  5604.86  5563.34  295.695  291.5  593.308  593.02
   397.6190  6456.93  6274.15  6003.06  6098.61  6053.41  285.909  281.882  573.568  573.281
   397.8697  7012.87  6814.25  6553.95  6658.24  6608.88  276.631  272.768  554.84  554.554
   398.1203  7647.75  7431.04  7181.26  7295.51  7241.41  267.834  264.131  537.067  536.78
   398.3709  8376.05  8138.6  7899.12  8024.76  7965.24  259.492  255.945  520.193  519.904
   398.6216  9215.55  8954.2  8724.86  8863.62  8797.85  251.583  248.191  504.173  503.879
   398.8722  10188.2  9899.14  9679.88  9833.8  9760.82  244.087  240.85  488.963  488.664
   399.1228  11321.1  10999.8  10790.7  10962.2  10880.9  236.988  233.907  474.529  474.221
   399.3734  12648.2  12289.1  12090.2  12282.4  12191.2  230.275  227.352  460.84  460.522
   399.6241  14211.5  13808  13619.5  13836  13733.2  223.939  221.178  447.873  447.541
   399.8747  16063.5  15607.3  15429.6  15674.9  15558.5  217.975  215.384  435.61  435.261
   400.1253  18269.3  17750.3  17584  17863.4  17730.7  212.383  209.971  424.043  423.673
   400.3759  20908.3  20314.2  20160.1  20480.4  20328.3  207.169  204.949  413.171  412.773
   400.6266  24075.9  23391.7  23250.6  23620.1  23444.6  202.343  200.332  402.999  402.568
   400.8772  27880.8  27088.3  26961.7  27390  27186.5  197.921  196.139  393.543  393.07
   401.1278  32436.6  31514.6  31403.8  31902.7  31665.7  193.918  192.393  384.819  384.297
   401.3784  37838.6  36762.9  36669.8  37252.3  36975.5  190.35  189.111  376.841  376.258
   401.6291  44115.9  42861.6  42788  43467.7  43144.7  187.212  186.29  369.597  368.942
   401.8797  51146.5  49692.2  49639.7  50428.3  50053.5  184.462  183.884  363.019  362.285
   402.1303  58536.7  56872.2  56841.4  57744.4  57315.3  181.986  181.763  356.939  356.119
   402.3810  65510.8  63648  63637.8  64648.7  64168.2  179.57  179.682  351.04  350.14
   402.6316  70935.2  68918.1  68924.7  70019.5  69499.2  176.904  177.29  344.873  343.912
   402.8822  73624.2  71530.5  71547.4  72683.9  72143.7  173.669  174.219  337.969  336.979
   403.1328  72883.1  70810.5  70829.5  71954.6  71419.8  169.672  170.251  330.049  329.07
   403.3835  68909.4  66949.8  66963.2  68026.8  67521.3  164.959  165.438  321.172  320.243
   403.6341  62672.8  60890.6  60892.9  61860.2  61400.5  159.78  160.068  311.696  310.844
   403.8847  55394.8  53819.7  53808.4  54663.2  54256.9  154.451  154.507  302.075  301.312
   404.1353  48077.1  46710.1  46685  47426.6  47074.2  149.231  149.051  292.679  292.006
   404.3860  41326  40151  40113.4  40750.6  40447.7  144.275  143.879  283.73  283.139
   404.6366  35405.1  34398.4  34350  34895.7  34636.4  139.648  139.067  275.316  274.799
   404.8872  30359.6  29496.5  29439.2  29906.9  29684.7  135.356  134.623  267.446  266.991
   405.1378  26124.7  25382  25317.7  25720  25528.8  131.378  130.523  260.086  259.683
   405.3885  22593.2  21951  21881.2  22228.9  22063.7  127.681  126.73  253.185  252.826
   405.6391  19651.9  19093.3  19019.4  19321.5  19178  124.231  123.206  246.692  246.37
   405.8897  17197  16708.2  16631.1  16895.4  16769.8  120.997  119.915  240.56  240.269
   406.1404  15139.8  14709.5  14630.2  14862.6  14752.2  117.951  116.826  234.746  234.482
   406.3910  13407.1  13026.1  12945.1  13150.8  13053.1  115.07  113.915  229.217  228.975
   406.6416  11939.4  11600.1  11518.1  11701.1  11614.2  112.336  111.159  223.942  223.72
   406.8922  10688.8  10385.1  10302.5  10466.2  10388.4  109.733  108.541  218.898  218.692
   407.1429  9616.96  9343.75  9260.8  9407.98  9338.1  107.247  106.046  214.062  213.87
   407.3935  8692.97  8446.03  8363.07  8495.99  8432.89  104.867  103.662  209.419  209.239
   407.6441  7891.97  7667.81  7585.06  7705.62  7648.39  102.585  101.38  204.952  204.783
   407.8947  7193.88  6989.56  6907.21  7017  6964.88  100.391  99.1895  200.649  200.49
   408.1454  6582.35  6395.43  6313.6  6413.97  6366.34  98.2806  97.0842  196.499  196.349
   408.3960  6044.08  5872.46  5791.28  5883.34  5839.66  96.2464  95.0575  192.491  192.349
   408.6466  5568.11  5410.02  5329.58  5414.31  5374.1  94.2837  93.1039  188.618  188.484
   408.8972  5145.4  4999.33  4919.7  4997.92  4960.81  92.388  91.2186  184.872  184.744
   409.1479  4768.48  4633.12  4554.35  4626.77  4592.42  90.5553  89.3973  181.246  181.123
   409.3985  4431.07  4305.31  4227.44  4294.67  4262.78  88.782  87.6362  177.733  177.616
   409.6491  4127.95  4010.8  3933.87  3996.43  3966.77  87.065  85.932  174.328  174.215
   409.8997  3854.68  3745.3  3669.34  3727.7  3700.03  85.4013  84.2816  171.026  170.918
   410.1504  3607.53  3505.18  3430.2  3484.75  3458.89  83.7883  82.6822  167.821  167.717
   410.4010  3383.32  3287.34  3213.35  3264.46  3240.24  82.2234  81.1313  164.711  164.61
   410.6516  3179.33  3089.14  3016.15  3064.13  3041.39  80.7046  79.6266  161.689  161.592
   410.9023  2993.21  2908.32  2836.33  2881.45  2860.07  79.2297  78.166  158.753  158.66
   411.1529  2822.97  2742.92  2671.92  2714.43  2694.29  77.7969  76.7473  155.899  155.809
   411.4035  2666.86  2591.24  2521.24  2561.36  2542.36  76.4042  75.369  153.124  153.036
   411.6541  2523.37  2451.83  2382.82  2420.74  2402.78  75.0502  74.0291  150.425  150.34
   411.9048  2391.19  2323.4  2255.38  2291.27  2274.27  73.7331  72.7262  147.798  147.715
   412.1554  2269.17  2204.85  2137.79  2171.82  2155.71  72.4515  71.4587  145.241  145.161
   412.4060  2156.29  2095.18  2029.08  2061.38  2046.09  71.2042  70.2253  142.751  142.673
   412.6566  2051.67  1993.53  1928.39  1959.08  1944.55  69.9897  69.0245  140.327  140.251
   412.9073  1954.53  1899.15  1834.94  1864.15  1850.33  68.8068  67.8553  137.964  137.89
   413.1579  1864.17  1811.35  1748.07  1775.9  1762.74  67.6544  66.7163  135.662  135.59
   413.4085  1779.98  1729.55  1667.19  1693.73  1681.17  66.5313  65.6066  133.418  133.348
   413.6591  1701.41  1653.21  1591.74  1617.09  1605.1  65.4366  64.525  131.23  131.161
   413.9098  1627.97  1581.86  1521.27  1545.5  1534.04  64.3692  63.4705  129.096  129.029
   414.1604  1559.22  1515.07  1455.35  1478.53  1467.57  63.3282  62.4422  127.014  126.949
   414.4110  1494.78  1452.46  1393.6  1415.79  1405.3  62.3127  61.4392  124.983  124.92
   414.6617  1434.3  1393.69  1335.66  1356.94  1346.88  61.3218  60.4606  123.001  122.939
   414.9123  1377.44  1338.45  1281.25  1301.66  1292.02  60.3547  59.5056  121.067  121.006
   415.1629  1323.94  1286.47  1230.08  1249.68  1240.42  59.4106  58.5735  119.177  119.118
   415.4135  1273.53  1237.48  1181.89  1200.73  1191.83  58.4888  57.6634  117.333  117.275
   415.6642  1225.97  1191.28  1136.47  1154.58  1146.03  57.5885  56.7746  115.531  115.474
   415.9148  1181.06  1147.65  1093.61  1111.04  1102.8  56.7092  55.9066  113.771  113.715
   416.1654  1138.61  1106.4  1053.11  1069.9  1061.97  55.85  55.0585  112.05  111.996
   416.4160  1098.43  1067.36  1014.81  1030.99  1023.35  55.0104  54.2299  110.369  110.316
   416.6667  1060.36  1030.37  978.554  994.156  986.791  54.1898  53.42  108.726  108.674
   416.9173  1024.27  995.303  944.198  959.254  952.149  53.3876  52.6283  107.12  107.068
   417.1679  990.014  962.017  911.613  926.151  919.291  52.6032  51.8543  105.549  105.498
   417.4185  957.469  930.396  880.679  894.725  888.099  51.8362  51.0974  104.012  103.963
   417.6692  926.525  900.33  851.287  864.867  858.462  51.0859  50.3571  102.509  102.46
   417.9198  897.078  871.718  823.337  836.472  830.278  50.3519  49.6329  101.039  100.991
   418.1704  869.031  844.467  796.736  809.449  803.455  49.6338  48.9243  99.5999  99.553
   418.4211  842.299  818.493  771.399  783.71  777.907  48.931  48.231  98.1917  98.1456
   418.6717  816.799  793.716  747.248  759.175  753.554  48.2431  47.5524  96.8133  96.768
   418.9223  792.456  770.063  724.21  735.77  730.323  47.5698  46.8881  95.4639  95.4194
   419.1729  769.201  747.468  702.218  713.429  708.147  46.9105  46.2377  94.1426  94.0989
   419.4236  746.97  725.867  681.209  692.086  686.963  46.2649  45.6009  92.8487  92.8057
   419.6742  725.704  705.204  661.127  671.684  666.713  45.6326  44.9773  91.5814  91.5391
   419.9248  705.346  685.424  641.917  652.169  647.342  45.0133  44.3664  90.3399  90.2984
   420.1754  685.847  666.477  623.53  633.49  628.802  44.4066  43.7679  89.1237  89.0828
   420.4261  667.157  648.317  605.919  615.6  611.044  43.8121  43.1816  87.9319  87.8917
   420.6767  649.232  630.9  589.042  598.455  594.026  43.2295  42.607  86.7639  86.7244
   420.9273  632.032  614.187  572.859  582.014  577.708  42.6585  42.0439  85.6192  85.5802
   421.1779  615.517  598.14  557.332  566.241  562.051  42.0988  41.4919  84.497  84.4587
   421.4286  599.651  582.724  542.427  551.098  547.021  41.5501  40.9508  83.3969  83.3591
   421.6792  584.4  567.905  528.109  536.554  532.584  41.0121  40.4202  82.3181  82.2809
   421.9298  569.733  553.653  514.351  522.576  518.71  40.4846  39.9  81.2602  81.2236
   422.1805  555.619  539.94  501.121  509.137  505.371  39.9671  39.3898  80.2226  80.1866
   422.4311  542.033  526.738  488.395  496.208  492.538  39.4596  38.8893  79.2049  79.1693
   422.6817  528.946  514.022  476.146  483.765  480.186  38.9617  38.3984  78.2064  78.1714
   422.9323  516.336  501.769  464.351  471.782  468.293  38.4733  37.9167  77.2268  77.1922
   423.1830  504.178  489.956  452.988  460.239  456.835  37.994  37.4441  76.2654  76.2314
   423.4336  492.451  478.561  442.036  449.114  445.792  37.5236  36.9803  75.322  75.2885
   423.6842  481.136  467.566  431.477  438.386  435.144  37.0619  36.5251  74.396  74.363
   423.9348  470.213  456.952  421.29  428.038  424.873  36.6087  36.0782  73.4871  73.4545
   424.1855  459.663  446.701  411.459  418.051  414.96  36.1638  35.6396  72.5947  72.5626
   424.4361  449.47  436.797  401.968  408.409  405.389  35.727  35.2089  71.7185  71.6868
   424.6867  439.618  427.224  392.8  399.096  396.145  35.2981  34.7861  70.8582  70.8269
   424.9373  430.092  417.967  383.943  390.098  387.214  34.8769  34.3708  70.0132  69.9824
   425.1880  420.877  409.013  375.381  381.4  378.58  34.4632  33.9629  69.1834  69.1529
   425.4386  411.96  400.348  367.101  372.989  370.232  34.0569  33.5623  68.3682  68.3382
   425.6892  403.328  391.961  359.093  364.853  362.157  33.6577  33.1688  67.5674  67.5377
   425.9398  394.969  383.838  351.343  356.98  354.342  33.2655  32.7821  66.7806  66.7513
   426.1905  386.871  375.97  343.841  349.359  346.777  32.8802  32.4022  66.0075  65.9786
   426.4411  379.024  368.344  336.576  341.98  339.452  32.5015  32.0289  65.2477  65.2192
   426.6917  371.417  360.953  329.539  334.831  332.356  32.1293  31.662  64.5011  64.4729
   426.9424  364.04  353.785  322.72  327.904  325.48  31.7635  31.3014  63.7672  63.7394
   427.1930  356.885  346.832  316.11  321.189  318.816  31.404  30.947  63.0458  63.0183
   427.4436  349.942  340.086  309.701  314.678  312.353  31.0505  30.5985  62.3365  62.3095
   427.6942  343.203  333.537  303.484  308.363  306.085  30.703  30.256  61.6393  61.6125
   427.9449  336.66  327.18  297.453  302.236  300.003  30.3613  29.9191  60.9536  60.9272
   428.1955  330.306  321.005  291.599  296.29  294.101  30.0253  29.5879  60.2794  60.2533
   428.4461  324.132  315.006  285.916  290.517  288.371  29.6948  29.2621  59.6163  59.5906
   428.6967  318.133  309.176  280.398  284.911  282.807  29.3698  28.9418  58.9641  58.9387
   428.9474  312.302  303.51  275.037  279.466  277.402  29.0501  28.6266  58.3226  58.2975
   429.1980  306.632  298  269.829  274.176  272.15  28.7356  28.3166  57.6915  57.6667
   429.4486  301.118  292.642  264.767  269.034  267.047  28.4262  28.0116  57.0707  57.0461
   429.6992  295.753  287.429  259.846  264.035  262.085  28.1218  27.7116  56.4598  56.4355
   429.9499  290.533  282.356  255.061  259.174  257.26  27.8222  27.4163  55.8587  55.8347
   430.2005  285.452  277.419  250.407  254.446  252.567  27.5275  27.1258  55.2671  55.2434
   430.4511  280.505  272.612  245.878  249.846  248.001  27.2374  26.8398  54.6849  54.6615
   430.7018  275.688  267.931  241.472  245.37  243.558  26.9518  26.5584  54.1119  54.0888
   430.9524  270.996  263.372  237.182  241.013  239.234  26.6708  26.2813  53.5479  53.525
   431.2030  266.425  258.929  233.006  236.771  235.023  26.3941  26.0086  52.9927  52.97
   431.4536  261.97  254.6  228.939  232.64  230.922  26.1217  25.7402  52.446  52.4236
   431.7043  257.628  250.381  224.978  228.616  226.928  25.8536  25.4759  51.9078  51.8857
   431.9549  253.394  246.267  221.118  224.696  223.037  25.5895  25.2156  51.3779  51.356
   432.2055  249.266  242.256  217.357  220.875  219.245  25.3295  24.9593  50.856  50.8343
   432.4561  245.24  238.343  213.691  217.152  215.548  25.0734  24.7069  50.3421  50.3207
   432.7068  241.311  234.526  210.116  213.521  211.945  24.8212  24.4583  49.8359  49.8147
   432.9574  237.478  230.801  206.631  209.981  208.431  24.5728  24.2135  49.3373  49.3164
   433.2080  233.737  227.165  203.231  206.528  205.003  24.3281  23.9724  48.8462  48.8255
   433.4586  230.085  223.617  199.915  203.16  201.66  24.0871  23.7348  48.3625  48.3419
   433.7093  226.52  220.152  196.679  199.873  198.398  23.8496  23.5007  47.8858  47.8655
   433.9599  223.038  216.768  193.521  196.666  195.214  23.6156  23.2701  47.4162  47.3961
   434.2105  219.637  213.463  190.438  193.535  192.106  23.3851  23.0429  46.9535  46.9336
   434.4612  216.314  210.234  187.429  190.478  189.072  23.1579  22.819  46.4976  46.4779
   434.7118  213.068  207.079  184.49  187.493  186.109  22.9341  22.5984  46.0482  46.0288
   434.9624  209.895  203.996  181.62  184.578  183.216  22.7134  22.381  45.6054  45.5861
   435.2130  206.793  200.982  178.816  181.731  180.389  22.496  22.1666  45.1689  45.1498
   435.4637  203.761  198.036  176.076  178.948  177.628  22.2816  21.9554  44.7387  44.7198
   435.7143  200.797  195.155  173.399  176.23  174.929  22.0704  21.7472  44.3146  44.2959
   435.9649  197.897  192.337  170.782  173.572  172.291  21.8621  21.5419  43.8965  43.878
   436.2155  195.061  189.581  168.225  170.975  169.713  21.6567  21.3395  43.4843  43.466
   436.4662  192.286  186.885  165.724  168.435  167.192  21.4543  21.14  43.0779  43.0598
   436.7168  189.572  184.246  163.278  165.952  164.727  21.2546  20.9432  42.6772  42.6593
   436.9674  186.915  181.665  160.886  163.523  162.317  21.0578  20.7492  42.282  42.2643
   437.2180  184.314  179.137  158.547  161.148  159.958  20.8637  20.5579  41.8924  41.8748
   437.4687  181.769  176.664  156.258  158.823  157.651  20.6722  20.3693  41.5081  41.4907
   437.7193  179.276  174.241  154.018  156.549  155.394  20.4834  20.1832  41.1291  41.1118
   437.9699  176.835  171.87  151.826  154.324  153.185  20.2972  19.9996  40.7552  40.7382
   438.2206  174.445  169.547  149.68  152.145  151.022  20.1135  19.8186  40.3865  40.3696
   438.4712  172.104  167.271  147.58  150.013  148.906  19.9323  19.64  40.0227  40.006
   438.7218  169.81  165.042  145.523  147.925  146.833  19.7535  19.4638  39.6638  39.6472
   438.9724  167.562  162.858  143.509  145.88  144.804  19.5771  19.29  39.3098  39.2934
   439.2231  165.36  160.718  141.537  143.878  142.816  19.4031  19.1185  38.9605  38.9442
   439.4737  163.201  158.62  139.605  141.917  140.87  19.2314  18.9493  38.6158  38.5997
   439.7243  161.085  156.564  137.712  139.996  138.963  19.062  18.7824  38.2757  38.2597
   439.9749  159.011  154.548  135.858  138.113  137.094  18.8948  18.6176  37.94  37.9242
   440.2256  156.977  152.572  134.04  136.269  135.263  18.7298  18.455  37.6088  37.5931
   440.4762  154.983  150.633  132.259  134.461  133.469  18.567  18.2945  37.2819  37.2664
   440.7268  153.027  148.733  130.513  132.689  131.71  18.4062  18.1361  36.9593  36.9439
   440.9774  151.109  146.868  128.802  130.952  129.986  18.2476  17.9798  36.6408  36.6255
   441.2281  149.227  145.04  127.124  129.249  128.296  18.091  17.8255  36.3264  36.3113
   441.4787  147.38  143.245  125.478  127.58  126.638  17.9364  17.6732  36.0161  36.0011
   441.7293  145.569  141.485  123.865  125.942  125.013  17.7838  17.5228  35.7097  35.6949
   441.9799  143.791  139.757  122.282  124.337  123.419  17.6332  17.3743  35.4073  35.3926
   442.2306  142.046  138.061  120.729  122.761  121.855  17.4844  17.2277  35.1087  35.0941
   442.4812  140.333  136.397  119.206  121.216  120.322  17.3375  17.083  34.8138  34.7994
   442.7318  138.652  134.763  117.711  119.7  118.817  17.1925  16.9401  34.5227  34.5083
   442.9825  137.002  133.159  116.244  118.213  117.34  17.0493  16.799  34.2352  34.221
   443.2331  135.381  131.584  114.805  116.753  115.891  16.9079  16.6596  33.9512  33.9372
   443.4837  133.789  130.037  113.392  115.32  114.469  16.7682  16.522  33.6708  33.6569
   443.7343  132.226  128.518  112.005  113.914  113.073  16.6303  16.386  33.3939  33.3801
   443.9850  130.691  127.026  110.643  112.533  111.703  16.494  16.2518  33.1204  33.1067
   444.2356  129.183  125.561  109.306  111.178  110.357  16.3595  16.1192  32.8502  32.8366
   444.4862  127.702  124.121  107.993  109.848  109.036  16.2265  15.9882  32.5834  32.5699
   444.7368  126.246  122.706  106.704  108.541  107.739  16.0952  15.8588  32.3197  32.3064
   444.9875  124.816  121.316  105.437  107.258  106.466  15.9655  15.731  32.0593  32.0461
   445.2381  123.41  119.951  104.193  105.997  105.215  15.8374  15.6047  31.802  31.7889
   445.4887  122.029  118.608  102.971  104.76  103.986  15.7108  15.4799  31.5478  31.5348
   445.7393  120.672  117.289  101.77  103.544  102.779  15.5857  15.3566  31.2967  31.2838
   445.9900  119.337  115.992  100.591  102.349  101.593  15.4621  15.2348  31.0485  31.0357
   446.2406  118.025  114.717  99.4311  101.175  100.428  15.3399  15.1145  30.8033  30.7906
   446.4912  116.736  113.464  98.2916  100.022  99.2831  15.2192  14.9956  30.561  30.5484
   446.7419  115.468  112.232  97.1716  98.889  98.1582  15.1  14.878  30.3215  30.309
   446.9925  114.221  111.02  96.0706  97.7753  97.0526  14.9821  14.7619  30.0849  30.0725
   447.2431  112.995  109.829  94.9883  96.6808  95.9661  14.8656  14.6471  29.851  29.8387
   447.4937  111.79  108.657  93.9241  95.6051  94.8982  14.7505  14.5336  29.6198  29.6077
   447.7444  110.604  107.505  92.8778  94.5476  93.8485  14.6367  14.4215  29.3914  29.3793
   447.9950  109.438  106.371  91.8489  93.5081  92.8166  14.5242  14.3107  29.1655  29.1535
   448.2456  108.29  105.256  90.837  92.4862  91.8021  14.413  14.2011  28.9423  28.9304
   448.4962  107.162  104.16  89.8418  91.4816  90.8047  14.3031  14.0928  28.7216  28.7098
   448.7469  106.052  103.081  88.8628  90.4938  89.8241  14.1944  13.9857  28.5034  28.4917
   448.9975  104.96  102.02  87.8998  89.5225  88.8599  14.087  13.8799  28.2878  28.2762
   449.2481  103.885  100.975  86.9524  88.5675  87.9118  13.9808  13.7752  28.0745  28.063
   449.4987  102.828  99.9479  86.0203  87.6283  86.9794  13.8758  13.6717  27.8637  27.8523
   449.7494  101.788  98.937  85.1031  86.7048  86.0626  13.772  13.5694  27.6552  27.6439
   450.0000  100.765  97.9423  84.2005  85.7966  85.1609  13.6693  13.4683  27.4491  27.4379