File: examples/mos2/reference/raman_spectra2.dat
#Raman spectra
#Laser energy   2.33 eV
#Raman shift (cm-1), Raman Spectra (XX,YY,ZZ,s+s+,s-s-,XY,YX,s+s-,s-s+)
   350.0000  95.9078  94.4627  72.8806  69.0048  68.6383  25.9938  25.4853  52.1168  52.0897
   350.2506  96.9727  95.5116  73.5746  69.662  69.2921  26.3896  25.8732  52.9104  52.8828
   350.5013  98.0565  96.5791  74.2785  70.3285  69.9552  26.7945  26.2702  53.7223  53.6943
   350.7519  99.1596  97.6656  74.9926  71.0047  70.6279  27.2088  26.6764  54.5531  54.5247
   351.0025  100.282  98.7716  75.717  71.6907  71.3104  27.6329  27.0921  55.4034  55.3745
   351.2531  101.426  99.8976  76.452  72.3867  72.0028  28.067  27.5177  56.2738  56.2445
   351.5038  102.59  101.044  77.1978  73.0929  72.7054  28.5115  27.9534  57.165  57.1353
   351.7544  103.775  102.212  77.9545  73.8094  73.4183  28.9666  28.3996  58.0776  58.0474
   352.0050  104.982  103.401  78.7223  74.5366  74.1417  29.4327  28.8566  59.0124  58.9817
   352.2556  106.212  104.612  79.5016  75.2745  74.8758  29.9103  29.3248  59.9699  59.9387
   352.5063  107.465  105.846  80.2925  76.0235  75.621  30.3996  29.8044  60.9511  60.9194
   352.7569  108.742  107.103  81.0953  76.7837  76.3773  30.9011  30.296  61.9566  61.9244
   353.0075  110.042  108.385  81.9101  77.5553  77.145  31.4151  30.8  62.9872  62.9545
   353.2581  111.368  109.691  82.7374  78.3387  77.9244  31.9421  31.3166  64.0439  64.0107
   353.5088  112.72  111.022  83.5772  79.134  78.7156  32.4825  31.8464  65.1275  65.0937
   353.7594  114.098  112.379  84.4298  79.9414  79.519  33.0368  32.3898  66.2389  66.2045
   354.0100  115.503  113.763  85.2956  80.7613  80.3347  33.6054  32.9472  67.3791  67.3441
   354.2607  116.936  115.175  86.1747  81.5938  81.163  34.1889  33.5192  68.5491  68.5135
   354.5113  118.398  116.615  87.0675  82.4393  82.0042  34.7877  34.1063  69.7499  69.7137
   354.7619  119.89  118.084  87.9743  83.298  82.8586  35.4025  34.709  70.9826  70.9458
   355.0125  121.412  119.583  88.8953  84.1702  83.7263  36.0338  35.3279  72.2484  72.2109
   355.2632  122.965  121.112  89.8308  85.0562  84.6078  36.6821  35.9635  73.5484  73.5102
   355.5138  124.55  122.674  90.7812  85.9562  85.5033  37.3481  36.6164  74.8839  74.8451
   355.7644  126.169  124.268  91.7467  86.8706  86.4131  38.0325  37.2873  76.2562  76.2167
   356.0150  127.821  125.896  92.7277  87.7997  87.3375  38.736  37.9769  77.6667  77.6264
   356.2657  129.509  127.559  93.7245  88.7437  88.2768  39.4591  38.6859  79.1167  79.0757
   356.5163  131.234  129.257  94.7375  89.7031  89.2313  40.2027  39.4149  80.6078  80.566
   356.7669  132.995  130.992  95.767  90.6781  90.2015  40.9677  40.1648  82.1415  82.099
   357.0175  134.796  132.766  96.8134  91.6691  91.1875  41.7546  40.9363  83.7195  83.6762
   357.2682  136.636  134.578  97.877  92.6764  92.1898  42.5646  41.7303  85.3436  85.2993
   357.5188  138.517  136.431  98.9582  93.7004  93.2087  43.3983  42.5477  87.0153  86.9703
   357.7694  140.441  138.326  100.057  94.7415  94.2446  44.2568  43.3893  88.7368  88.6909
   358.0201  142.409  140.265  101.175  95.8  95.2978  45.1412  44.2563  90.51  90.4631
   358.2707  144.422  142.247  102.312  96.8764  96.3688  46.0523  45.1495  92.3369  92.2891
   358.5213  146.482  144.276  103.467  97.971  97.458  46.9913  46.07  94.2197  94.171
   358.7719  148.59  146.353  104.643  99.0843  98.5658  47.9594  47.0191  96.1609  96.1111
   359.0226  150.749  148.479  105.838  100.217  99.6926  48.9577  47.9978  98.1626  98.1119
   359.2732  152.959  150.656  107.054  101.369  100.839  49.9875  49.0074  100.228  100.176
   359.5238  155.223  152.886  108.292  102.54  102.005  51.0503  50.0492  102.359  102.306
   359.7744  157.543  155.171  109.55  103.733  103.191  52.1473  51.1247  104.558  104.504
   360.0251  159.92  157.513  110.831  104.946  104.399  53.2801  52.2352  106.83  106.774
   360.2757  162.357  159.913  112.135  106.181  105.627  54.4502  53.3824  109.176  109.119
   360.5263  164.856  162.374  113.461  107.437  106.878  55.6593  54.5677  111.6  111.543
   360.7769  167.419  164.899  114.812  108.716  108.15  56.9092  55.793  114.106  114.048
   361.0276  170.049  167.489  116.186  110.018  109.446  58.2017  57.0601  116.698  116.638
   361.2782  172.748  170.148  117.585  111.343  110.765  59.5387  58.3708  119.379  119.317
   361.5288  175.518  172.877  119.01  112.693  112.108  60.9223  59.7273  122.153  122.09
   361.7794  178.364  175.679  120.461  114.067  113.476  62.3547  61.1315  125.025  124.961
   362.0301  181.287  178.559  121.938  115.467  114.869  63.8383  62.5859  128  127.934
   362.2807  184.291  181.517  123.443  116.892  116.287  65.3754  64.0929  131.082  131.015
   362.5313  187.379  184.559  124.976  118.344  117.732  66.9687  65.6548  134.277  134.208
   362.7820  190.554  187.687  126.537  119.824  119.205  68.621  67.2746  137.59  137.519
   363.0326  193.821  190.905  128.128  121.331  120.705  70.3351  68.9551  141.027  140.954
   363.2832  197.184  194.217  129.75  122.867  122.233  72.1143  70.6993  144.594  144.52
   363.5338  200.645  197.627  131.402  124.432  123.791  73.9618  72.5104  148.299  148.222
   363.7845  204.21  201.138  133.085  126.027  125.379  75.8811  74.3921  152.147  152.069
   364.0351  207.884  204.757  134.802  127.653  126.997  77.8761  76.3478  156.147  156.067
   364.2857  211.671  208.487  136.552  129.311  128.647  79.9507  78.3817  160.307  160.225
   364.5363  215.576  212.334  138.336  131.002  130.33  82.1092  80.4978  164.635  164.551
   364.7870  219.606  216.303  140.155  132.725  132.045  84.3563  82.7007  169.141  169.054
   365.0376  223.765  220.4  142.01  134.483  133.795  86.6968  84.9952  173.834  173.744
   365.2882  228.06  224.631  143.903  136.276  135.58  89.1359  87.3863  178.724  178.632
   365.5388  232.499  229.002  145.833  138.106  137.401  91.6792  89.8797  183.824  183.729
   365.7895  237.087  233.522  147.803  139.972  139.259  94.3328  92.4811  189.145  189.047
   366.0401  241.833  238.197  149.813  141.876  141.155  97.1031  95.197  194.699  194.599
   366.2907  246.744  243.035  151.864  143.82  143.09  99.997  98.034  200.502  200.399
   366.5414  251.83  248.044  153.957  145.804  145.065  103.022  100.999  206.567  206.461
   366.7920  257.1  253.235  156.094  147.829  147.081  106.186  104.101  212.911  212.802
   367.0426  262.563  258.617  158.276  149.897  149.139  109.498  107.348  219.551  219.438
   367.2932  268.231  264.2  160.503  152.008  151.241  112.966  110.748  226.506  226.39
   367.5439  274.114  269.995  162.778  154.164  153.388  116.602  114.313  233.796  233.676
   367.7945  280.226  276.016  165.102  156.367  155.581  120.416  118.051  241.442  241.318
   368.0451  286.58  282.274  167.476  158.617  157.822  124.419  121.976  249.469  249.341
   368.2957  293.189  288.785  169.901  160.916  160.111  128.625  126.099  257.902  257.769
   368.5464  300.071  295.563  172.38  163.265  162.45  133.046  130.434  266.768  266.631
   368.7970  307.24  302.626  174.913  165.667  164.842  137.7  134.996  276.097  275.956
   369.0476  314.717  309.99  177.502  168.121  167.286  142.6  139.8  285.923  285.776
   369.2982  322.52  317.676  180.149  170.631  169.786  147.766  144.864  296.281  296.129
   369.5489  330.67  325.705  182.856  173.197  172.342  153.217  150.208  307.209  307.052
   369.7995  339.193  334.1  185.624  175.822  174.956  158.973  155.851  318.751  318.588
   370.0501  348.112  342.886  188.456  178.507  177.63  165.059  161.817  330.953  330.784
   370.3008  357.456  352.09  191.352  181.254  180.367  171.499  168.131  343.866  343.69
   370.5514  367.255  361.743  194.316  184.065  183.167  178.322  174.82  357.546  357.363
   370.8020  377.543  371.878  197.35  186.942  186.033  185.558  181.914  372.054  371.864
   371.0526  388.356  382.529  200.454  189.887  188.967  193.242  189.446  387.459  387.261
   371.3033  399.735  393.739  203.633  192.902  191.972  201.409  197.453  403.834  403.628
   371.5539  411.724  405.549  206.888  195.99  195.049  210.103  205.976  421.264  421.049
   371.8045  424.373  418.009  210.221  199.153  198.2  219.368  215.059  439.84  439.615
   372.0551  437.736  431.172  213.636  202.393  201.429  229.255  224.752  459.664  459.429
   372.3058  451.872  445.098  217.134  205.713  204.738  239.822  235.111  480.848  480.603
   372.5564  466.851  459.852  220.719  209.115  208.13  251.13  246.197  503.521  503.264
   372.8070  482.745  475.51  224.393  212.603  211.607  263.251  258.08  527.822  527.553
   373.0576  499.639  492.152  228.16  216.179  215.173  276.264  270.837  553.911  553.629
   373.3083  517.627  509.872  232.022  219.846  218.83  290.257  284.555  581.966  581.669
   373.5589  536.814  528.773  235.983  223.608  222.581  305.331  299.332  612.186  611.874
   373.8095  557.319  548.972  240.046  227.467  226.431  321.598  315.279  644.799  644.471
   374.0602  579.276  570.602  244.216  231.428  230.382  339.186  332.522  680.061  679.715
   374.3108  602.837  593.812  248.494  235.493  234.439  358.241  351.203  718.263  717.897
   374.5614  628.175  618.773  252.886  239.667  238.605  378.929  371.484  759.737  759.35
   374.8120  655.488  645.679  257.395  243.954  242.884  401.438  393.55  804.863  804.453
   375.0627  685.001  674.753  262.026  248.358  247.281  425.985  417.615  854.076  853.641
   375.3133  716.975  706.25  266.783  252.882  251.8  452.822  443.924  907.876  907.413
   375.5639  751.709  740.467  271.67  257.533  256.446  482.236  472.76  966.842  966.35
   375.8145  789.549  777.744  276.692  262.314  261.224  514.562  504.451  1031.65  1031.12
   376.0652  830.9  818.48  281.856  267.231  266.139  550.19  539.379  1103.07  1102.51
   376.3158  876.233  863.139  287.164  272.289  271.198  589.577  577.992  1182.03  1181.43
   376.5664  926.101  912.264  292.624  277.493  276.405  633.259  620.815  1269.59  1268.95
   376.8170  981.154  966.499  298.242  282.851  281.768  681.866  668.466  1367.03  1366.34
   377.0677  1042.17  1026.6  304.022  288.367  287.293  736.148  721.682  1475.85  1475.09
   377.3183  1110.05  1093.48  309.971  294.05  292.989  796.999  781.337  1597.82  1597.01
   377.5689  1185.92  1168.22  316.097  299.906  298.862  865.487  848.478  1735.11  1734.22
   377.8195  1271.08  1252.11  322.406  305.942  304.921  942.898  924.368  1890.28  1889.32
   378.0702  1367.13  1346.74  328.906  312.168  311.176  1030.79  1010.53  2066.45  2065.4
   378.3208  1476.03  1454.02  335.603  318.593  317.638  1131.06  1108.83  2267.43  2266.28
   378.5714  1600.15  1576.29  342.508  325.224  324.316  1246.02  1221.54  2497.86  2496.59
   378.8221  1742.4  1716.43  349.627  332.075  331.225  1378.54  1351.44  2763.46  2762.05
   379.0727  1906.4  1878  356.97  339.155  338.378  1532.12  1502  3071.28  3069.71
   379.3233  2096.63  2065.4  364.546  346.478  345.79  1711.14  1677.51  3430.08  3428.33
   379.5739  2318.65  2284.12  372.366  354.057  353.48  1921.04  1883.29  3850.76  3848.8
   379.8246  2579.4  2541.01  380.44  361.909  361.468  2168.61  2125.99  4346.92  4344.71
   380.0752  2887.51  2844.54  388.78  370.051  369.779  2462.27  2413.87  4935.44  4932.92
   380.3258  3253.63  3205.22  397.396  378.503  378.439  2812.43  2757.15  5637.18  5634.31
   380.5764  3690.7  3635.8  406.301  387.287  387.48  3231.75  3168.23  6477.51  6474.2
   380.8271  4214  4151.34  415.508  396.429  396.937  3735.15  3661.74  7486.35  7482.52
   381.0777  4840.55  4768.58  425.032  405.956  406.851  4339.26  4253.98  8697.01  8692.56
   381.3283  5587.1  5504.05  434.886  415.895  417.26  5060.42  4960.96  10142.3  10137.1
   381.5789  6465.5  6369.41  445.087  426.271  428.197  5910.11  5793.95  11845.3  11839.2
   381.8296  7473.52  7362.48  455.65  437.098  439.675  6886  6750.65  13801.5  13794.4
   382.0802  8579.77  8452.31  466.593  448.365  451.659  7957.08  7800.68  15949  15940.8
   382.3308  9704.55  9560.4  477.934  460.023  464.046  9045.04  8867.26  18131.2  18122
   382.5815  10708  10548.9  489.693  471.974  476.636  10012.7  9815.93  20073.6  20063.4
   382.8321  11407.3  11237.9  501.889  484.086  489.168  10681.6  10471.6  21418  21407.2
   383.0827  11640.5  11467.6  514.545  496.245  501.414  10893.5  10679.4  21847.2  21836.2
   383.3333  11348.8  11180.2  527.683  508.424  513.307  10592.4  10384.2  21247.3  21236.7
   383.5840  10612.1  10454.5  541.329  520.715  524.993  9857.24  9663.49  19775.8  19765.9
   383.8346  9601.91  9459.25  555.51  533.285  536.764  8855.75  8681.69  17768.7  17759.9
   384.0852  8496.97  8370.7  570.254  546.31  548.919  7762.46  7609.89  15576.3  15568.5
   384.3358  7427.64  7317.24  585.592  559.926  561.688  6704.18  6572.41  13453.3  13446.6
   384.5865  6464.63  6368.51  601.555  574.223  575.208  5749.52  5636.52  11537.7  11532
   384.8371  5633.39  5549.6  618.179  589.254  589.553  4923.07  4826.31  9879.23  9874.34
   385.0877  4933.07  4859.67  635.501  605.052  604.753  4223.79  4140.78  8475.85  8471.65
   385.3383  4350.6  4285.83  653.558  621.645  620.827  3638.83  3567.31  7301.86  7298.24
   385.5890  3869  3811.37  672.395  639.058  637.787  3151.55  3089.61  6323.91  6320.78
   385.8396  3471.51  3419.77  692.056  657.321  655.652  2745.56  2691.6  5509.1  5506.37
   386.0902  3143.28  3096.4  712.589  676.465  674.442  2406.31  2359.01  4828.25  4825.85
   386.3409  2871.79  2828.94  734.047  696.532  694.189  2121.54  2079.85  4256.76  4254.64
   386.5915  2646.82  2607.3  756.486  717.564  714.928  1881.24  1844.27  3774.51  3772.63
   386.8421  2460.11  2423.35  779.967  739.613  736.706  1677.28  1644.32  3365.21  3363.53
   387.0927  2305.02  2270.56  804.554  762.735  759.571  1503.15  1473.61  3015.78  3014.27
   387.3434  2176.27  2143.71  830.318  786.991  783.583  1353.62  1327.02  2715.7  2714.34
   387.5940  2069.61  2038.62  857.335  812.451  808.807  1224.47  1200.4  2456.54  2455.3
   387.8446  1981.64  1951.94  885.688  839.189  835.314  1112.31  1090.45  2231.48  2230.36
   388.0952  1909.63  1880.99  915.465  867.288  863.184  1014.4  994.469  2035.02  2034
   388.3459  1851.37  1823.59  946.763  896.836  892.505  928.505  910.261  1862.66  1861.72
   388.5965  1805.1  1777.99  979.687  927.932  923.371  852.791  836.035  1710.74  1709.88
   388.8471  1769.38  1742.79  1014.35  960.682  955.89  785.753  770.315  1576.23  1575.43
   389.0977  1743.04  1716.83  1050.88  995.202  990.174  726.149  711.883  1456.63  1455.89
   389.3484  1725.17  1699.21  1089.41  1031.62  1026.35  672.942  659.722  1349.88  1349.19
   389.5990  1715  1689.18  1130.08  1070.08  1064.56  625.268  612.985  1254.22  1253.58
   389.8496  1711.96  1686.17  1173.07  1110.72  1104.94  582.4  570.96  1168.21  1167.61
   390.1003  1715.58  1689.72  1218.54  1153.73  1147.68  543.725  533.045  1090.61  1090.05
   390.3509  1725.51  1699.49  1266.7  1199.27  1192.94  508.722  498.731  1020.38  1019.86
   390.6015  1741.5  1715.23  1317.74  1247.56  1240.94  476.948  467.582  956.632  956.137
   390.8521  1763.39  1736.78  1371.92  1298.81  1291.88  448.024  439.226  898.598  898.131
   391.1028  1791.09  1764.04  1429.49  1353.27  1346.02  421.623  413.344  845.627  845.185
   391.3534  1824.58  1797.02  1490.74  1411.21  1403.62  397.464  389.661  797.154  796.736
   391.6040  1863.92  1835.75  1555.98  1472.94  1464.99  375.304  367.936  752.691  752.293
   391.8546  1909.22  1880.36  1625.56  1538.78  1530.44  354.93  347.963  711.811  711.434
   392.1053  1960.67  1931.02  1699.89  1609.11  1600.37  336.159  329.561  674.146  673.785
   392.3559  2018.51  1987.98  1779.39  1684.33  1675.16  318.827  312.57  639.369  639.025
   392.6065  2083.07  2051.55  1864.55  1764.92  1755.29  302.794  296.853  607.196  606.867
   392.8571  2154.74  2122.12  1955.93  1851.39  1841.26  287.933  282.285  577.377  577.061
   393.1078  2233.98  2200.16  2054.12  1944.31  1933.65  274.136  268.759  549.689  549.386
   393.3584  2321.36  2286.2  2159.83  2044.34  2033.12  261.304  256.179  523.936  523.644
   393.6090  2417.51  2380.89  2273.83  2152.22  2140.39  249.349  244.461  499.945  499.663
   393.8596  2523.21  2484.98  2397  2268.78  2256.28  238.196  233.527  477.559  477.287
   394.1103  2639.32  2599.33  2530.33  2394.96  2381.76  227.774  223.311  456.64  456.377
   394.3609  2766.88  2724.94  2674.98  2531.85  2517.87  218.022  213.752  437.064  436.809
   394.6115  2907.04  2862.97  2832.22  2680.66  2665.84  208.886  204.795  418.721  418.473
   394.8622  3061.18  3014.77  3003.56  2842.81  2827.08  200.314  196.393  401.51  401.268
   395.1128  3230.88  3181.89  3190.69  3019.91  3003.18  192.262  188.5  385.342  385.105
   395.3634  3417.97  3366.14  3395.59  3213.83  3196.01  184.691  181.079  370.135  369.903
   395.6140  3624.58  3569.61  3620.55  3426.73  3407.72  177.564  174.093  355.816  355.588
   395.8647  3853.21  3794.76  3868.22  3661.12  3640.8  170.847  167.509  342.32  342.095
   396.1153  4106.77  4044.47  4141.7  3919.94  3898.17  164.511  161.299  329.585  329.363
   396.3659  4388.69  4322.1  4444.62  4206.62  4183.24  158.53  155.437  317.558  317.338
   396.6165  4703.01  4631.65  4781.26  4525.22  4500.06  152.878  149.898  306.19  305.97
   396.8672  5054.54  4977.84  5156.69  4880.53  4853.39  147.534  144.661  295.435  295.215
   397.1178  5448.97  5366.28  5576.94  5278.26  5248.88  142.478  139.706  285.253  285.033
   397.3684  5893.13  5803.7  6049.19  5725.21  5693.34  137.691  135.015  275.607  275.385
   397.6190  6395.24  6298.18  6582.11  6229.57  6194.88  133.157  130.573  266.463  266.238
   397.8697  6965.21  6859.49  7186.14  6801.23  6763.34  128.863  126.366  257.792  257.562
   398.1203  7615.08  7499.5  7873.96  7452.19  7410.67  124.794  122.38  249.565  249.33
   398.3709  8359.59  8232.69  8661.07  8197.12  8151.43  120.939  118.605  241.76  241.518
   398.6216  9216.79  9076.88  9566.46  9054  9003.53  117.289  115.031  234.353  234.103
   398.8722  10209  10054  10613.6  10045  9989.02  113.835  111.651  227.328  227.066
   399.1228  11363.8  11191.2  11831.5  11197.7  11135.3  110.572  108.457  220.667  220.392
   399.3734  12715.5  12522.5  13256.4  12546.2  12476.2  107.493  105.446  214.359  214.067
   399.6241  14307  14089.8  14933.2  14133.2  14054.3  104.598  102.615  208.393  208.081
   399.8747  16191.5  15945.7  16918  16011.6  15922.3  101.884  99.9645  202.764  202.427
   400.1253  18435.1  18155.2  19280.1  18247.2  18145.4  99.3547  97.4963  197.47  197.102
   400.3759  21118.6  20797.9  22104.7  20920.4  20803.7  97.0147  95.216  192.512  192.107
   400.6266  24338.6  23969.1  25493.4  24127.5  23992.9  94.8718  93.1316  187.896  187.446
   400.8772  28205.9  27777.6  29562.4  27978.5  27822.3  92.9367  91.2541  183.633  183.129
   401.1278  32835.5  32337  34433  32588.1  32406.2  91.2208  89.5955  179.736  179.165
   401.3784  38324.4  37742.5  40207  38052.7  37840.3  89.7334  88.1652  176.211  175.562
   401.6291  44702.1  44023.3  46915.4  44401.7  44153.8  88.4738  86.9628  173.057  172.315
   401.8797  51844.7  51057.5  54428  51511.8  51224.2  87.4184  85.9644  170.236  169.391
   402.1303  59352.4  58451.2  62324.4  58985.1  58655.8  86.5016  85.1038  167.658  166.703
   402.3810  66437.5  65428.7  69776.3  66037.7  65669  85.5994  84.2553  165.15  164.093
   402.6316  71948.6  70856.1  75573.2  71524  71124.7  84.5325  83.2373  162.467  161.33
   402.8822  74681.6  73547.7  78448.9  74245.6  73831.1  83.1138  81.8604  159.353  158.177
   403.1328  73931.2  72808.6  77661.7  73500.7  73090.3  81.2325  80.0122  155.653  154.49
   403.3835  69897.7  68836.4  73422.4  69488.5  69100.5  78.9157  77.7205  151.403  150.301
   403.6341  63566.1  62600.9  66766.7  63189.4  62836.6  76.3103  75.1342  146.8  145.794
   403.8847  56176.9  55323.9  58998.8  55837.7  55525.9  73.6023  72.4419  142.096  141.2
   404.1353  48747.2  48007  51188.3  48445.6  48175.2  70.9438  69.798  137.495  136.711
   404.3860  41892.9  41256.8  43982.7  41626.2  41393.8  68.4261  67.2949  133.12  132.439
   404.6366  35881.6  35336.8  37663.4  35645.5  35446.5  66.0874  64.9717  129.021  128.43
   404.8872  30759.3  30292.3  32278.9  30549.5  30378.9  63.9325  62.8331  125.203  124.689
   405.1378  26460.1  26058.4  27759.9  26272.6  26125.9  61.9491  60.8669  121.648  121.199
   405.3885  22875.3  22528  23991.9  22706.5  22579.7  60.1187  59.0543  118.329  117.935
   405.6391  19889.7  19587.7  20854  19736.7  19626.5  58.4217  57.3755  115.219  114.87
   405.8897  17398.1  17133.9  18235.4  17258.4  17162  56.8404  55.8126  112.293  111.982
   406.1404  15310.3  15077.9  16041.4  15181.9  15097.2  55.3592  54.35  109.527  109.248
   406.3910  13552.1  13346.3  14193.8  13433.4  13358.4  53.9653  52.9745  106.904  106.653
   406.6416  12062.9  11879.7  12629.1  11952.5  11885.8  52.6478  51.6754  104.409  104.18
   406.8922  10794.1  10630.3  11296.2  10691  10631.4  51.398  50.4436  102.026  101.818
   407.1429  9706.88  9559.51  10154.1  9610.1  9556.47  50.2083  49.2719  99.7472  99.5555
   407.3935  8769.73  8636.59  9169.78  8678.51  8630.09  49.0728  48.154  97.5619  97.385
   407.6441  7957.46  7836.64  8316.72  7871.16  7827.24  47.9864  47.0848  95.4627  95.2988
   407.8947  7249.65  7139.58  7573.48  7167.74  7127.75  46.9447  46.0599  93.4429  93.2904
   408.1454  6629.72  6529.07  6922.62  6551.76  6515.2  45.9441  45.0758  91.4969  91.3544
   408.3960  6084.15  5991.78  6349.91  6009.73  5976.21  44.9814  44.1293  89.6196  89.4861
   408.6466  5601.82  5516.78  5843.67  5530.62  5499.77  44.0539  43.2176  87.8068  87.6812
   408.8972  5173.56  5095.02  5394.25  5105.28  5076.81  43.1593  42.3384  86.0545  85.9361
   409.1479  4791.76  4719.01  4993.66  4726.16  4699.8  42.2954  41.4895  84.3592  84.2473
   409.3985  4450.07  4382.51  4635.22  4386.92  4362.45  41.4604  40.6692  82.718  82.6119
   409.6491  4143.16  4080.26  4313.34  4082.28  4059.51  40.6526  39.8757  81.1279  81.0271
   409.8997  3866.55  3807.85  4023.29  3807.77  3786.53  39.8705  39.1076  79.5865  79.4905
   410.1504  3616.44  3561.54  3761.08  3559.61  3539.76  39.1128  38.3636  78.0913  77.9997
   410.4010  3389.6  3338.15  3523.31  3334.58  3315.99  38.3783  37.6423  76.6403  76.5528
   410.6516  3183.27  3134.95  3307.09  3129.95  3112.5  37.6657  36.9427  75.2315  75.1476
   410.9023  2995.07  2949.61  3109.92  2943.34  2926.93  36.9742  36.2639  73.8629  73.7825
   411.1529  2822.97  2780.12  2929.66  2772.74  2757.28  36.3027  35.6047  72.533  72.4558
   411.4035  2665.21  2624.75  2764.44  2616.37  2601.79  35.6504  34.9644  71.24  71.1658
   411.6541  2520.24  2481.98  2612.67  2472.73  2458.95  35.0163  34.3421  69.9826  69.9111
   411.9048  2386.73  2350.5  2472.93  2340.48  2327.44  34.3999  33.737  68.7592  68.6903
   412.1554  2263.52  2229.16  2344  2218.46  2206.1  33.8003  33.1486  67.5686  67.5021
   412.4060  2149.58  2116.95  2224.81  2105.65  2093.92  33.2168  32.576  66.4096  66.3453
   412.6566  2044.01  2012.99  2114.4  2001.16  1990.01  32.6489  32.0187  65.2808  65.2187
   412.9073  1946.02  1916.48  2011.94  1904.19  1893.58  32.0959  31.4761  64.1813  64.1211
   413.1579  1854.9  1826.74  1916.69  1814.05  1803.94  31.5573  30.9476  63.11  63.0517
   413.4085  1770.02  1743.16  1828  1730.11  1720.47  31.0325  30.4328  62.0658  62.0092
   413.6591  1690.84  1665.18  1745.28  1651.82  1642.62  30.5211  29.931  61.0478  60.9929
   413.9098  1616.86  1592.32  1668.02  1578.69  1569.9  30.0226  29.4419  60.0551  60.0018
   414.1604  1547.63  1524.14  1595.73  1510.28  1501.87  29.5365  28.965  59.0869  59.035
   414.4110  1482.76  1460.25  1528.02  1446.2  1438.14  29.0623  28.4998  58.1422  58.0918
   414.6617  1421.89  1400.31  1464.5  1386.08  1378.36  28.5997  28.046  57.2204  57.1713
   414.9123  1364.69  1343.98  1404.84  1329.62  1322.21  28.1483  27.6032  56.3206  56.2728
   415.1629  1310.89  1290.99  1348.73  1276.51  1269.41  27.7077  27.171  55.4422  55.3956
   415.4135  1260.21  1241.08  1295.9  1226.51  1219.68  27.2776  26.749  54.5844  54.539
   415.6642  1212.42  1194.02  1246.1  1179.38  1172.81  26.8576  26.337  53.7466  53.7024
   415.9148  1167.31  1149.59  1199.1  1134.9  1128.58  26.4473  25.9346  52.9282  52.885
   416.1654  1124.68  1107.61  1154.69  1092.87  1086.79  26.0466  25.5415  52.1286  52.0864
   416.4160  1084.34  1067.89  1112.7  1053.13  1047.26  25.655  25.1574  51.3471  51.3059
   416.6667  1046.15  1030.28  1072.95  1015.5  1009.85  25.2722  24.782  50.5832  50.543
   416.9173  1009.95  994.622  1035.28  979.852  974.398  24.8982  24.4151  49.8364  49.7971
   417.1679  975.6  960.796  999.547  946.038  940.772  24.5324  24.0564  49.1062  49.0677
   417.4185  942.982  928.673  965.629  913.937  908.851  24.1748  23.7056  48.3921  48.3544
   417.6692  911.98  898.141  933.402  883.437  878.521  23.825  23.3625  47.6936  47.6567
   417.9198  882.489  869.098  902.756  854.433  849.679  23.4828  23.0269  47.0102  46.9741
   418.1704  854.412  841.447  873.589  826.829  822.228  23.1481  22.6986  46.3415  46.3061
   418.4211  827.66  815.102  845.809  800.537  796.083  22.8205  22.3773  45.6871  45.6524
   418.6717  802.152  789.981  819.328  775.475  771.161  22.4999  22.0629  45.0465  45.0126
   418.9223  777.811  766.009  794.068  751.568  747.387  22.186  21.7551  44.4195  44.3862
   419.1729  754.567  743.118  769.954  728.747  724.693  21.8788  21.4538  43.8055  43.7728
   419.4236  732.355  721.244  746.919  706.946  703.013  21.5779  21.1587  43.2042  43.1722
   419.6742  711.116  700.326  724.899  686.106  682.29  21.2833  20.8698  42.6154  42.584
   419.9248  690.792  680.311  703.836  666.172  662.466  20.9947  20.5868  42.0385  42.0077
   420.1754  671.332  661.147  683.675  647.091  643.492  20.712  20.3095  41.4734  41.4431
   420.4261  652.688  642.785  664.366  628.817  625.32  20.435  20.0379  40.9197  40.89
   420.6767  634.814  625.183  645.862  611.304  607.904  20.1636  19.7717  40.377  40.3478
   420.9273  617.669  608.299  628.117  594.51  591.204  19.8976  19.5108  39.8452  39.8165
   421.1779  601.214  592.093  611.093  578.398  575.182  19.6368  19.2551  39.3238  39.2956
   421.4286  585.412  576.531  594.749  562.93  559.8  19.3812  19.0044  38.8127  38.785
   421.6792  570.228  561.578  579.051  548.073  545.026  19.1306  18.7587  38.3115  38.2843
   421.9298  555.632  547.203  563.965  533.796  530.828  18.8849  18.5177  37.82  37.7933
   422.1805  541.592  533.376  549.459  520.068  517.176  18.6438  18.2813  37.338  37.3117
   422.4311  528.082  520.071  535.505  506.861  504.044  18.4074  18.0495  36.8652  36.8393
   422.6817  515.074  507.26  522.075  494.151  491.404  18.1755  17.8221  36.4013  36.3759
   422.9323  502.544  494.92  509.142  481.911  479.233  17.948  17.599  35.9462  35.9212
   423.1830  490.469  483.028  496.683  470.12  467.507  17.7248  17.3801  35.4996  35.475
   423.4336  478.827  471.563  484.675  458.756  456.206  17.5057  17.1652  35.0614  35.0371
   423.6842  467.597  460.504  473.097  447.798  445.309  17.2907  16.9544  34.6312  34.6073
   423.9348  456.76  449.832  461.928  437.227  434.797  17.0796  16.7474  34.209  34.1855
   424.1855  446.299  439.529  451.148  427.026  424.653  16.8725  16.5443  33.7945  33.7713
   424.4361  436.195  429.579  440.742  417.177  414.859  16.669  16.3448  33.3874  33.3646
   424.6867  426.433  419.965  430.69  407.664  405.399  16.4693  16.1489  32.9878  32.9653
   424.9373  416.998  410.672  420.978  398.473  396.259  16.2731  15.9566  32.5953  32.5731
   425.1880  407.874  401.687  411.59  389.588  387.424  16.0805  15.7677  32.2098  32.188
   425.4386  399.049  392.996  402.512  380.997  378.88  15.8913  15.5821  31.8311  31.8096
   425.6892  390.509  384.586  393.731  372.686  370.616  15.7054  15.3999  31.4592  31.438
   425.9398  382.242  376.444  385.233  364.645  362.619  15.5228  15.2208  31.0937  31.0728
   426.1905  374.237  368.561  377.008  356.86  354.878  15.3433  15.0448  30.7346  30.714
   426.4411  366.483  360.924  369.042  349.322  347.381  15.167  14.8719  30.3817  30.3614
   426.6917  358.969  353.524  361.326  342.019  340.12  14.9937  14.702  30.0348  30.0148
   426.9424  351.685  346.351  353.849  334.944  333.083  14.8234  14.535  29.694  29.6742
   427.1930  344.623  339.396  346.602  328.085  326.263  14.656  14.3708  29.3589  29.3394
   427.4436  337.773  332.65  339.574  321.434  319.649  14.4914  14.2095  29.0294  29.0102
   427.6942  331.126  326.104  332.758  314.984  313.235  14.3296  14.0508  28.7056  28.6866
   427.9449  324.675  319.751  326.145  308.725  307.011  14.1705  13.8948  28.3871  28.3684
   428.1955  318.413  313.584  319.727  302.651  300.971  14.0141  13.7414  28.0739  28.0554
   428.4461  312.331  307.594  313.496  296.755  295.107  13.8602  13.5905  27.7659  27.7477
   428.6967  306.423  301.776  307.445  291.029  289.413  13.7089  13.4421  27.463  27.445
   428.9474  300.682  296.122  301.568  285.467  283.882  13.56  13.2962  27.165  27.1473
   429.1980  295.103  290.627  295.857  280.063  278.508  13.4136  13.1526  26.8719  26.8544
   429.4486  289.678  285.285  290.307  274.81  273.285  13.2696  13.0114  26.5835  26.5662
   429.6992  284.403  280.09  284.911  269.704  268.207  13.1278  12.8724  26.2998  26.2827
   429.9499  279.272  275.037  279.664  264.739  263.27  12.9884  12.7357  26.0206  26.0037
   430.2005  274.28  270.12  274.561  259.91  258.467  12.8511  12.6011  25.7458  25.7291
   430.4511  269.421  265.335  269.596  255.212  253.795  12.7161  12.4687  25.4754  25.4589
   430.7018  264.691  260.677  264.764  250.639  249.248  12.5831  12.3383  25.2092  25.193
   430.9524  260.086  256.142  260.061  246.189  244.822  12.4523  12.21  24.9472  24.9312
   431.2030  255.6  251.724  255.482  241.856  240.513  12.3235  12.0837  24.6893  24.6735
   431.4536  251.231  247.421  251.023  237.636  236.317  12.1967  11.9594  24.4354  24.4198
   431.7043  246.974  243.229  246.679  233.526  232.23  12.0718  11.837  24.1855  24.17
   431.9549  242.825  239.142  242.447  229.521  228.248  11.9489  11.7164  23.9393  23.924
   432.2055  238.78  235.159  238.323  225.619  224.367  11.8279  11.5977  23.6969  23.6818
   432.4561  234.836  231.275  234.304  221.815  220.584  11.7087  11.4809  23.4582  23.4432
   432.7068  230.99  227.488  230.384  218.107  216.897  11.5912  11.3657  23.2231  23.2083
   432.9574  227.239  223.793  226.563  214.491  213.301  11.4756  11.2524  22.9915  22.9769
   433.2080  223.579  220.189  222.835  210.964  209.793  11.3617  11.1407  22.7634  22.749
   433.4586  220.007  216.671  219.199  207.524  206.372  11.2495  11.0306  22.5387  22.5244
   433.7093  216.521  213.238  215.651  204.166  203.033  11.1389  10.9222  22.3173  22.3032
   433.9599  213.118  209.887  212.188  200.89  199.775  11.03  10.8154  22.0992  22.0852
   434.2105  209.795  206.614  208.808  197.692  196.595  10.9227  10.7102  21.8843  21.8704
   434.4612  206.55  203.418  205.508  194.57  193.49  10.8169  10.6065  21.6725  21.6588
   434.7118  203.38  200.297  202.286  191.521  190.459  10.7127  10.5043  21.4638  21.4502
   434.9624  200.284  197.247  199.139  188.544  187.498  10.61  10.4036  21.2581  21.2447
   435.2130  197.258  194.267  196.064  185.635  184.605  10.5088  10.3044  21.0553  21.0421
   435.4637  194.3  191.354  193.061  182.793  181.779  10.409  10.2065  20.8555  20.8424
   435.7143  191.41  188.508  190.125  180.016  179.018  10.3106  10.1101  20.6585  20.6456
   435.9649  188.584  185.724  187.256  177.302  176.319  10.2137  10.015  20.4643  20.4515
   436.2155  185.82  183.003  184.452  174.649  173.68  10.1181  9.92129  20.2728  20.2602
   436.4662  183.118  180.341  181.71  172.055  171.101  10.0238  9.82888  20.0841  20.0715
   436.7168  180.474  177.738  179.028  169.519  168.578  9.9309  9.73776  19.8979  19.8855
   436.9674  177.888  175.191  176.406  167.038  166.111  9.83926  9.64791  19.7144  19.7021
   437.2180  175.358  172.699  173.841  164.612  163.698  9.74889  9.5593  19.5334  19.5213
   437.4687  172.881  170.26  171.331  162.238  161.338  9.65977  9.47192  19.3549  19.3429
   437.7193  170.458  167.873  168.875  159.915  159.028  9.57187  9.38574  19.1788  19.1669
   437.9699  168.085  165.536  166.471  157.642  156.767  9.48518  9.30073  19.0052  18.9934
   438.2206  165.762  163.249  164.119  155.417  154.554  9.39966  9.21688  18.8339  18.8222
   438.4712  163.487  161.008  161.816  153.239  152.388  9.3153  9.13417  18.6649  18.6534
   438.7218  161.259  158.814  159.561  151.106  150.268  9.23208  9.05257  18.4982  18.4868
   438.9724  159.077  156.666  157.353  149.018  148.191  9.14997  8.97206  18.3338  18.3224
   439.2231  156.94  154.56  155.19  146.973  146.157  9.06896  8.89263  18.1715  18.1603
   439.4737  154.846  152.498  153.072  144.97  144.165  8.98903  8.81426  18.0114  18.0003
   439.7243  152.793  150.477  150.997  143.007  142.214  8.91016  8.73693  17.8534  17.8424
   439.9749  150.782  148.496  148.963  141.085  140.302  8.83233  8.66061  17.6975  17.6866
   440.2256  148.811  146.554  146.97  139.201  138.428  8.75552  8.5853  17.5436  17.5329
   440.4762  146.878  144.651  145.018  137.355  136.592  8.67971  8.51097  17.3918  17.3811
   440.7268  144.983  142.785  143.103  135.545  134.793  8.60489  8.43761  17.2419  17.2313
   440.9774  143.126  140.955  141.227  133.771  133.029  8.53104  8.3652  17.094  17.0835
   441.2281  141.304  139.161  139.387  132.032  131.299  8.45814  8.29372  16.9479  16.9376
   441.4787  139.517  137.401  137.583  130.327  129.603  8.38617  8.22317  16.8038  16.7935
   441.7293  137.764  135.675  135.813  128.655  127.94  8.31513  8.15351  16.6615  16.6513
   441.9799  136.044  133.982  134.078  127.014  126.309  8.24499  8.08474  16.5209  16.5109
   442.2306  134.357  132.32  132.375  125.406  124.71  8.17574  8.01684  16.3822  16.3722
   442.4812  132.702  130.69  130.705  123.828  123.14  8.10737  7.9498  16.2453  16.2354
   442.7318  131.077  129.09  129.066  122.279  121.601  8.03985  7.8836  16.11  16.1002
   442.9825  129.483  127.519  127.458  120.76  120.09  7.97318  7.81823  15.9764  15.9667
   443.2331  127.917  125.978  125.879  119.269  118.607  7.90735  7.75368  15.8445  15.8349
   443.4837  126.381  124.464  124.33  117.806  117.152  7.84232  7.68993  15.7143  15.7047
   443.7343  124.872  122.979  122.81  116.37  115.724  7.77811  7.62696  15.5856  15.5762
   443.9850  123.391  121.52  121.317  114.961  114.322  7.71468  7.56477  15.4586  15.4492
   444.2356  121.936  120.087  119.851  113.577  112.946  7.65203  7.50335  15.3331  15.3238
   444.4862  120.508  118.68  118.411  112.218  111.594  7.59015  7.44267  15.2091  15.1999
   444.7368  119.105  117.299  116.997  110.884  110.267  7.52902  7.38273  15.0866  15.0775
   444.9875  117.727  115.941  115.609  109.573  108.964  7.46862  7.32352  14.9656  14.9566
   445.2381  116.373  114.608  114.245  108.286  107.685  7.40896  7.26502  14.8461  14.8371
   445.4887  115.042  113.298  112.905  107.022  106.428  7.35002  7.20723  14.728  14.7191
   445.7393  113.735  112.01  111.588  105.781  105.193  7.29178  7.15012  14.6113  14.6025
   445.9900  112.451  110.745  110.294  104.561  103.98  7.23423  7.0937  14.496  14.4873
   446.2406  111.189  109.502  109.023  103.363  102.788  7.17737  7.03795  14.3821  14.3735
   446.4912  109.948  108.281  107.774  102.185  101.617  7.12118  6.98285  14.2695  14.2609
   446.7419  108.729  107.08  106.546  101.029  100.467  7.06565  6.92841  14.1583  14.1498
   446.9925  107.531  105.9  105.339  99.8916  99.3358  7.01077  6.8746  14.0483  14.0399
   447.2431  106.353  104.739  104.152  98.7742  98.2245  6.95653  6.82142  13.9397  13.9313
   447.4937  105.194  103.598  102.985  97.676  97.1323  6.90293  6.76887  13.8323  13.824
   447.7444  104.056  102.477  101.838  96.5966  96.0588  6.84995  6.71692  13.7261  13.7179
   447.9950  102.936  101.374  100.71  95.5355  95.0035  6.79758  6.66557  13.6212  13.613
   448.2456  101.835  100.29  99.6005  94.4924  93.9661  6.74581  6.61481  13.5175  13.5094
   448.4962  100.752  99.2235  98.5093  93.467  92.9462  6.69463  6.56463  13.4149  13.4069
   448.7469  99.6876  98.1748  97.436  92.4588  91.9435  6.64404  6.51503  13.3136  13.3056
   448.9975  98.6405  97.1435  96.3801  91.4676  90.9577  6.59403  6.46599  13.2134  13.2055
   449.2481  97.6107  96.1293  95.3414  90.4929  89.9883  6.54458  6.41751  13.1143  13.1065
   449.4987  96.5978  95.1316  94.3194  89.5346  89.0352  6.49569  6.36957  13.0163  13.0086
   449.7494  95.6016  94.1504  93.3138  88.5923  88.0979  6.44735  6.32217  12.9195  12.9118
   450.0000  94.6217  93.1852  92.3243  87.6657  87.1763  6.39955  6.27531  12.8237  12.8161