File: examples/mos2/reference/raman_spectra1.dat
#Raman spectra
#Laser energy   1.95 eV
#Raman shift (cm-1), Raman Spectra (XX,YY,ZZ,s+s+,s-s-,XY,YX,s+s-,s-s+)
   350.0000  63.9857  63.9897  97.2095  56.8501  56.7925  7.11503  6.86833  14.1617  14.1544
   350.2506  64.6334  64.6374  98.1351  57.3915  57.3334  7.2207  6.97023  14.3721  14.3647
   350.5013  65.2913  65.2954  99.074  57.9406  57.882  7.32883  7.0745  14.5874  14.5799
   350.7519  65.9597  65.9638  100.026  58.4976  58.4386  7.43948  7.1812  14.8078  14.8001
   351.0025  66.6388  66.6429  100.993  59.0627  59.0033  7.55273  7.29041  15.0333  15.0255
   351.2531  67.3289  67.3329  101.973  59.6361  59.5762  7.66867  7.40221  15.2641  15.2563
   351.5038  68.0301  68.0341  102.968  60.2178  60.1574  7.78738  7.51669  15.5005  15.4925
   351.7544  68.7428  68.7468  103.977  60.8081  60.7472  7.90895  7.63392  15.7426  15.7345
   352.0050  69.4671  69.4711  105.001  61.4071  61.3458  8.03347  7.754  15.9905  15.9823
   352.2556  70.2035  70.2074  106.041  62.015  61.9532  8.16105  7.87702  16.2445  16.2362
   352.5063  70.952  70.956  107.096  62.632  62.5697  8.29177  8.00308  16.5048  16.4963
   352.7569  71.7132  71.7171  108.166  63.2582  63.1955  8.42574  8.13228  16.7716  16.763
   353.0075  72.4871  72.491  109.253  63.8939  63.8307  8.56307  8.26471  17.0451  17.0363
   353.2581  73.2742  73.2781  110.357  64.5392  64.4755  8.70388  8.4005  17.3254  17.3165
   353.5088  74.0747  74.0786  111.477  65.1944  65.1301  8.84828  8.53975  17.613  17.6039
   353.7594  74.889  74.8929  112.614  65.8595  65.7948  8.9964  8.68258  17.9079  17.8987
   354.0100  75.7174  75.7213  113.769  66.5349  66.4697  9.14835  8.82912  18.2105  18.2011
   354.2607  76.5603  76.5641  114.941  67.2208  67.155  9.30428  8.97949  18.521  18.5114
   354.5113  77.418  77.4218  116.132  67.9173  67.851  9.46433  9.13384  18.8396  18.83
   354.7619  78.2908  78.2946  117.342  68.6247  68.5579  9.62864  9.29229  19.1668  19.157
   355.0125  79.1792  79.183  118.57  69.3432  69.2759  9.79736  9.45499  19.5028  19.4928
   355.2632  80.0836  80.0874  119.818  70.073  70.0052  9.97065  9.62211  19.8478  19.8376
   355.5138  81.0043  81.0081  121.086  70.8145  70.7461  10.1487  9.7938  20.2023  20.192
   355.7644  81.9418  81.9455  122.373  71.5677  71.4988  10.3316  9.97022  20.5666  20.5561
   356.0150  82.8966  82.9003  123.682  72.3331  72.2637  10.5197  10.1516  20.941  20.9303
   356.2657  83.869  83.8726  125.012  73.1108  73.0408  10.713  10.338  21.326  21.315
   356.5163  84.8595  84.8631  126.363  73.9011  73.8306  10.9118  10.5297  21.7218  21.7107
   356.7669  85.8687  85.8723  127.736  74.7043  74.6332  11.1163  10.7269  22.129  22.1177
   357.0175  86.897  86.9006  129.131  75.5206  75.4491  11.3267  10.9298  22.548  22.5364
   357.2682  87.9449  87.9485  130.55  76.3504  76.2783  11.5432  11.1387  22.9791  22.9674
   357.5188  89.0131  89.0166  131.992  77.194  77.1214  11.7662  11.3536  23.423  23.411
   357.7694  90.102  90.1054  133.458  78.0516  77.9785  11.9957  11.575  23.8801  23.8679
   358.0201  91.2122  91.2156  134.949  78.9236  78.8499  12.2322  11.8031  24.351  24.3385
   358.2707  92.3444  92.3477  136.465  79.8103  79.7361  12.4758  12.038  24.8361  24.8234
   358.5213  93.4991  93.5024  138.007  80.7121  80.6372  12.7269  12.2802  25.3361  25.3231
   358.7719  94.677  94.6802  139.574  81.6292  81.5538  12.9858  12.5298  25.8515  25.8383
   359.0226  95.8788  95.882  141.169  82.562  82.4861  13.2528  12.7873  26.3831  26.3697
   359.2732  97.1052  97.1084  142.791  83.5109  83.4344  13.5282  13.0529  26.9315  26.9178
   359.5238  98.357  98.36  144.441  84.4763  84.3993  13.8124  13.327  27.4975  27.4834
   359.7744  99.6349  99.6378  146.12  85.4585  85.3809  14.1058  13.6099  28.0817  28.0673
   360.0251  100.94  100.942  147.829  86.4579  86.3798  14.4088  13.9021  28.6849  28.6703
   360.2757  102.272  102.275  149.567  87.475  87.3963  14.7217  14.2039  29.3081  29.2932
   360.5263  103.633  103.636  151.337  88.5101  88.4309  15.0451  14.5158  29.952  29.9368
   360.7769  105.024  105.026  153.138  89.5637  89.484  15.3794  14.8382  30.6177  30.6021
   361.0276  106.445  106.447  154.971  90.6363  90.556  15.7251  15.1716  31.3061  31.2901
   361.2782  107.897  107.899  156.838  91.7282  91.6474  16.0828  15.5165  32.0182  32.0019
   361.5288  109.382  109.384  158.738  92.84  92.7587  16.4529  15.8734  32.7551  32.7385
   361.7794  110.9  110.902  160.673  93.9721  93.8903  16.836  16.243  33.5181  33.501
   362.0301  112.453  112.455  162.644  95.1251  95.0427  17.2329  16.6257  34.3083  34.2908
   362.2807  114.042  114.044  164.651  96.2994  96.2165  17.6441  17.0222  35.127  35.1092
   362.5313  115.668  115.67  166.695  97.4956  97.4122  18.0703  17.4333  35.9757  35.9575
   362.7820  117.332  117.334  168.778  98.7142  98.6304  18.5123  17.8596  36.8558  36.8371
   363.0326  119.036  119.037  170.9  99.9558  99.8715  18.9709  18.3018  37.7689  37.7498
   363.2832  120.781  120.782  173.062  101.221  101.136  19.4469  18.7608  38.7166  38.697
   363.5338  122.569  122.57  175.266  102.51  102.425  19.9411  19.2375  39.7008  39.6807
   363.7845  124.4  124.402  177.512  103.825  103.739  20.4546  19.7327  40.7232  40.7026
   364.0351  126.278  126.279  179.801  105.164  105.078  20.9883  20.2474  41.786  41.7648
   364.2857  128.204  128.204  182.135  106.53  106.444  21.5434  20.7827  42.8912  42.8695
   364.5363  130.178  130.179  184.515  107.922  107.836  22.1209  21.3397  44.0411  44.0188
   364.7870  132.205  132.205  186.942  109.342  109.255  22.7221  21.9195  45.2382  45.2153
   365.0376  134.284  134.284  189.416  110.791  110.703  23.3483  22.5234  46.4851  46.4616
   365.2882  136.42  136.42  191.94  112.268  112.18  24.0009  23.1528  47.7845  47.7604
   365.5388  138.613  138.612  194.515  113.775  113.687  24.6814  23.8091  49.1395  49.1147
   365.7895  140.866  140.866  197.142  115.312  115.224  25.3914  24.4938  50.5532  50.5277
   366.0401  143.183  143.182  199.823  116.881  116.793  26.1327  25.2087  52.0291  52.0029
   366.2907  145.565  145.564  202.559  118.482  118.394  26.907  25.9555  53.5709  53.5439
   366.5414  148.015  148.014  205.351  120.116  120.028  27.7164  26.736  55.1825  55.1548
   366.7920  150.538  150.536  208.201  121.785  121.696  28.563  27.5525  56.8683  56.8397
   367.0426  153.135  153.133  211.111  123.488  123.4  29.4492  28.4072  58.6327  58.6032
   367.2932  155.81  155.808  214.083  125.227  125.139  30.3773  29.3023  60.4808  60.4504
   367.5439  158.568  158.565  217.117  127.004  126.916  31.3502  30.2405  62.4179  62.3866
   367.7945  161.412  161.409  220.217  128.818  128.73  32.3707  31.2247  64.4498  64.4175
   368.0451  164.346  164.342  223.383  130.672  130.584  33.4419  32.2578  66.5828  66.5494
   368.2957  167.375  167.371  226.618  132.566  132.479  34.5673  33.3432  68.8236  68.7891
   368.5464  170.505  170.5  229.924  134.501  134.414  35.7506  34.4844  71.1796  71.144
   368.7970  173.739  173.734  233.303  136.48  136.393  36.9957  35.6852  73.6588  73.622
   369.0476  177.084  177.078  236.756  138.502  138.416  38.3071  36.95  76.2699  76.2318
   369.2982  180.547  180.54  240.287  140.569  140.484  39.6896  38.2832  79.0225  78.983
   369.5489  184.132  184.125  243.897  142.684  142.6  41.1482  39.6899  81.9267  81.8858
   369.7995  187.849  187.841  247.589  144.846  144.763  42.6887  41.1756  84.9939  84.9516
   370.0501  191.704  191.695  251.366  147.058  146.976  44.3173  42.7462  88.2366  88.1926
   370.3008  195.706  195.697  255.23  149.321  149.241  46.0408  44.4084  91.6682  91.6226
   370.5514  199.864  199.854  259.183  151.636  151.558  47.8666  46.1693  95.3036  95.2562
   370.8020  204.188  204.177  263.229  154.007  153.93  49.8031  48.0369  99.1593  99.1099
   371.0526  208.689  208.677  267.37  156.433  156.358  51.8592  50.0199  103.253  103.202
   371.3033  213.379  213.366  271.61  158.917  158.844  54.045  52.1279  107.605  107.552
   371.5539  218.271  218.256  275.951  161.461  161.391  56.3715  54.3717  112.237  112.182
   371.8045  223.378  223.363  280.397  164.066  163.999  58.851  56.7629  117.174  117.116
   372.0551  228.718  228.701  284.952  166.735  166.672  61.497  59.3148  122.442  122.382
   372.3058  234.307  234.288  289.618  169.47  169.41  64.3248  62.042  128.072  128.009
   372.5564  240.164  240.144  294.4  172.273  172.217  67.3512  64.9607  134.098  134.032
   372.8070  246.311  246.29  299.3  175.147  175.095  70.595  68.0892  140.556  140.487
   373.0576  252.772  252.749  304.325  178.093  178.046  74.0775  71.4478  147.49  147.417
   373.3083  259.573  259.547  309.476  181.114  181.073  77.8224  75.0595  154.946  154.869
   373.5589  266.744  266.716  314.76  184.213  184.179  81.8565  78.9501  162.977  162.897
   373.8095  274.317  274.287  320.179  187.393  187.365  86.21  83.1487  171.645  171.56
   374.0602  282.331  282.299  325.74  190.656  190.636  90.9171  87.6883  181.016  180.927
   374.3108  290.828  290.793  331.447  194.005  193.994  96.0167  92.6066  191.169  191.075
   374.5614  299.855  299.817  337.305  197.444  197.443  101.553  97.9461  202.192  202.093
   374.8120  309.467  309.425  343.32  200.976  200.985  107.577  103.756  214.185  214.08
   375.0627  319.726  319.681  349.496  204.604  204.625  114.147  110.092  227.264  227.153
   375.3133  330.704  330.654  355.841  208.332  208.367  121.329  117.019  241.563  241.444
   375.5639  342.481  342.427  362.36  212.163  212.213  129.201  124.61  257.235  257.108
   375.8145  355.153  355.094  369.059  216.102  216.169  137.852  132.954  274.458  274.323
   376.0652  368.828  368.764  375.946  220.153  220.24  147.388  142.15  293.44  293.297
   376.3158  383.635  383.565  383.027  224.321  224.428  157.929  152.316  314.425  314.271
   376.5664  399.724  399.646  390.31  228.609  228.741  169.619  163.591  337.698  337.533
   376.8170  417.268  417.183  397.802  233.023  233.183  182.628  176.137  363.594  363.417
   377.0677  436.477  436.384  405.512  237.569  237.76  197.156  190.148  392.514  392.323
   377.3183  457.597  457.494  413.448  242.251  242.478  213.441  205.854  424.933  424.726
   377.5689  480.923  480.809  421.619  247.076  247.343  231.771  223.532  461.42  461.195
   377.8195  506.808  506.681  430.034  252.051  252.364  252.488  243.512  502.66  502.415
   378.0702  535.68  535.539  438.704  257.181  257.549  276.011  266.199  549.483  549.216
   378.3208  568.058  567.901  447.638  262.475  262.904  302.846  292.079  602.899  602.606
   378.5714  604.575  604.4  456.847  267.941  268.442  333.614  321.753  664.142  663.819
   378.8221  646.012  645.815  466.343  273.586  274.171  369.078  355.956  734.73  734.373
   379.0727  693.327  693.105  476.138  279.422  280.104  410.181  395.597  816.54  816.144
   379.3233  747.713  747.462  486.244  285.458  286.255  458.093  441.804  911.901  911.458
   379.5739  810.65  810.364  496.675  291.706  292.639  514.27  495.983  1023.71  1023.21
   379.8246  883.98  883.654  507.445  298.179  299.274  580.527  559.883  1155.58  1155.02
   380.0752  969.996  969.621  518.569  304.892  306.179  659.12  635.68  1311.99  1311.35
   380.3258  1071.52  1071.09  530.063  311.861  313.38  752.834  726.061  1498.5  1497.77
   380.5764  1192  1191.5  541.942  319.106  320.903  865.057  834.293  1721.84  1721
   380.8271  1335.48  1334.89  554.224  326.646  328.78  999.785  964.229  1989.96  1989
   381.0777  1506.47  1505.79  566.929  334.506  337.044  1161.46  1120.16  2311.73  2310.61
   381.3283  1709.43  1708.63  580.075  342.708  345.731  1354.47  1306.3  2695.84  2694.54
   381.5789  1947.5  1946.55  593.684  351.273  354.868  1581.87  1525.61  3148.46  3146.94
   381.8296  2220.1  2218.99  607.776  360.211  364.465  1843.05  1777.5  3668.37  3666.59
   382.0802  2518.91  2517.63  622.375  369.513  374.491  2129.71  2053.96  4239.13  4237.08
   382.3308  2822.85  2821.38  637.506  379.139  384.851  2420.88  2334.78  4819.12  4816.79
   382.5815  3094.86  3093.23  653.192  389.003  395.368  2679.87  2584.55  5335.35  5332.78
   382.8321  3286.55  3284.81  669.462  398.994  405.806  2858.86  2757.18  5692.67  5689.93
   383.0827  3354.99  3353.21  686.343  409.014  415.959  2915.6  2811.9  5806.76  5803.97
   383.3333  3284.63  3282.91  703.866  419.041  425.766  2835.01  2734.18  5647.32  5644.61
   383.5840  3096.68  3095.09  722.065  429.151  435.358  2638.25  2544.42  5256.22  5253.71
   383.8346  2836.54  2835.11  740.977  439.486  444.991  2370.22  2285.92  4722.79  4720.53
   384.0852  2551.61  2550.37  760.639  450.194  454.934  2077.62  2003.73  4140.09  4138.12
   384.3358  2276.43  2275.36  781.094  461.389  465.387  1794.39  1730.57  3575.85  3574.14
   384.5865  2029.74  2028.84  802.384  473.148  476.473  1538.9  1484.16  3066.74  3065.28
   384.8371  1818.31  1817.54  824.555  485.513  488.254  1317.71  1270.85  2625.95  2624.69
   385.0877  1641.92  1641.28  847.656  498.513  500.757  1130.56  1090.35  2252.96  2251.88
   385.3383  1497.14  1496.6  871.74  512.171  513.994  974.006  939.366  1940.94  1940.01
   385.5890  1379.49  1379.03  896.863  526.505  527.974  843.596  813.595  1681.02  1680.22
   385.8396  1284.56  1284.17  923.086  541.541  542.711  734.939  708.803  1464.46  1463.76
   386.0902  1208.44  1208.1  950.472  557.305  558.221  644.144  621.237  1283.51  1282.89
   386.3409  1147.83  1147.55  979.093  573.829  574.527  567.933  547.736  1131.62  1131.07
   386.5915  1100.07  1099.82  1009.02  591.15  591.66  503.621  485.711  1003.45  1002.96
   386.8421  1062.98  1062.77  1040.34  609.309  609.655  449.035  433.067  894.664  894.231
   387.0927  1034.86  1034.68  1073.13  628.353  628.554  402.433  388.122  801.791  801.402
   387.3434  1014.33  1014.19  1107.5  648.332  648.403  362.412  349.525  722.037  721.686
   387.5940  1000.32  1000.2  1143.53  669.302  669.257  327.848  316.19  653.158  652.839
   387.8446  991.964  991.861  1181.35  691.326  691.175  297.831  287.241  593.344  593.053
   388.0952  988.584  988.501  1221.07  714.471  714.222  271.628  261.97  541.129  540.862
   388.3459  989.651  989.585  1262.81  738.81  738.469  248.64  239.799  495.321  495.076
   388.5965  994.749  994.699  1306.73  764.424  763.997  228.377  220.257  454.943  454.717
   388.8471  1003.56  1003.52  1352.96  791.401  790.893  210.436  202.954  419.194  418.984
   389.0977  1015.84  1015.82  1401.69  819.837  819.25  194.484  187.569  387.408  387.214
   389.3484  1031.41  1031.4  1453.08  849.836  849.173  180.245  173.836  359.035  358.854
   389.5990  1050.16  1050.16  1507.33  881.514  880.776  167.487  161.532  333.613  333.443
   389.8496  1072.02  1072.03  1564.66  914.996  914.184  156.014  150.467  310.753  310.594
   390.1003  1096.95  1096.97  1625.32  950.42  949.535  145.664  140.485  290.13  289.98
   390.3509  1124.96  1124.99  1689.54  987.937  986.978  136.297  131.451  271.465  271.324
   390.6015  1156.11  1156.15  1757.63  1027.71  1026.68  127.794  123.25  254.522  254.388
   390.8521  1190.47  1190.52  1829.9  1069.93  1068.82  120.054  115.785  239.099  238.972
   391.1028  1228.15  1228.21  1906.68  1114.79  1113.61  112.989  108.972  225.021  224.9
   391.3534  1269.31  1269.38  1988.37  1162.53  1161.26  106.525  102.737  212.139  212.024
   391.6040  1314.12  1314.2  2075.39  1213.37  1212.02  100.595  97.0176  200.323  200.213
   391.8546  1362.8  1362.89  2168.21  1267.61  1266.18  95.1432  91.7598  189.459  189.353
   392.1053  1415.61  1415.71  2267.35  1325.54  1324.02  90.1205  86.9155  179.45  179.348
   392.3559  1472.84  1472.96  2373.39  1387.51  1385.89  85.4833  82.443  170.208  170.11
   392.6065  1534.84  1534.96  2486.98  1453.9  1452.18  81.1936  78.3057  161.659  161.564
   392.8571  1601.99  1602.13  2608.86  1525.12  1523.3  77.218  74.4713  153.735  153.643
   393.1078  1674.75  1674.89  2739.83  1601.67  1599.74  73.527  70.9113  146.378  146.289
   393.3584  1753.61  1753.77  2880.83  1684.08  1682.02  70.0944  67.6004  139.535  139.448
   393.6090  1839.18  1839.35  3032.88  1772.94  1770.77  66.897  64.5164  133.161  133.076
   393.8596  1932.11  1932.29  3197.16  1868.96  1866.65  63.914  61.6392  127.214  127.13
   394.1103  2033.15  2033.35  3375.01  1972.9  1970.45  61.1271  58.951  121.656  121.574
   394.3609  2143.19  2143.4  3567.94  2085.66  2083.05  58.5198  56.436  116.456  116.376
   394.6115  2263.21  2263.44  3777.67  2208.25  2205.47  56.0772  54.0798  111.584  111.504
   394.8622  2394.36  2394.61  4006.2  2341.82  2338.86  53.786  51.8697  107.013  106.934
   395.1128  2537.96  2538.23  4255.8  2487.71  2484.55  51.6345  49.7942  102.72  102.64
   395.3634  2695.54  2695.82  4529.11  2647.46  2644.08  49.6118  47.8428  98.6818  98.6027
   395.6140  2868.86  2869.17  4829.16  2822.84  2819.22  47.7081  46.0063  94.8807  94.8012
   395.8647  3059.98  3060.31  5159.51  3015.92  3012.04  45.9149  44.2761  91.2985  91.2183
   396.1153  3271.31  3271.67  5524.28  3229.12  3224.96  44.2241  42.6447  87.9193  87.8383
   396.3659  3505.67  3506.06  5928.32  3465.29  3460.81  42.6287  41.1052  84.7289  84.6465
   396.6165  3766.4  3766.82  6377.34  3727.74  3722.91  41.1221  39.6512  81.7142  81.63
   396.8672  4057.42  4057.88  6878.1  4020.43  4015.21  39.6985  38.2773  78.8633  78.777
   397.1178  4383.44  4383.94  7438.63  4348.06  4342.4  38.3528  36.9782  76.1657  76.0766
   397.3684  4750.05  4750.59  8068.53  4716.25  4710.1  37.0801  35.7495  73.6115  73.5192
   397.6190  5163.99  5164.58  8779.35  5131.72  5125.02  35.8763  34.5871  71.1922  71.096
   397.8697  5633.38  5634.03  9585.01  5602.64  5595.31  34.7378  33.4874  68.8998  68.799
   398.1203  6168.12  6168.84  10502.4  6138.88  6130.84  33.6611  32.4471  66.7276  66.6213
   398.3709  6780.26  6781.05  11552.3  6752.53  6743.67  32.6437  31.4637  64.6692  64.5564
   398.6216  7484.61  7485.49  12759.9  7458.4  7448.6  31.6832  30.5349  62.7195  62.5991
   398.8722  8299.44  8300.41  14156.6  8274.78  8263.9  30.7779  29.6588  60.8739  60.7445
   399.1228  9247.38  9248.47  15781.1  9224.32  9212.18  29.9265  28.8343  59.1289  58.9888
   399.3734  10356.6  10357.8  17681.7  10335.2  10321.6  29.1284  28.0607  57.4819  57.329
   399.6241  11662.1  11663.5  19918.2  11642.5  11627.1  28.3838  27.338  55.9312  55.7632
   399.8747  13207.6  13209.1  22565.5  13189.8  13172.4  27.6936  26.6668  54.4764  54.2903
   400.1253  15047.1  15048.9  25716.2  15031.5  15011.6  27.0596  26.0488  53.1184  52.9106
   400.3759  17246.9  17249  29483.7  17233.6  17210.8  26.4846  25.4866  51.8596  51.6256
   400.6266  19886.3  19888.6  34003.6  19875.5  19849.2  25.9728  24.9836  50.7036  50.4382
   400.8772  23055.7  23058.4  39430.9  23047.8  23017.3  25.5289  24.5443  49.6557  49.3522
   401.1278  26849.6  26852.8  45927.4  26845.1  26809.6  25.1583  24.1734  48.7215  48.3724
   401.3784  31347.3  31351.1  53628.8  31346.6  31305.1  24.8653  23.8749  47.9056  47.5022
   401.6291  36573.1  36577.5  62576.6  36576.7  36528.3  24.6504  23.6491  47.2075  46.7409
   401.8797  42425.5  42430.5  72597.1  42433.7  42377.6  24.5047  23.4879  46.615  46.0776
   402.1303  48576.8  48582.6  83129.5  48590  48525.7  24.4031  23.3682  46.095  45.483
   402.3810  54381.9  54388.4  93069  54399.7  54327.7  24.2974  23.2457  45.5844  44.9022
   402.6316  58897.7  58904.7  100801  58919.1  58841.2  24.1174  23.0561  44.9926  44.2558
   402.8822  61137.6  61144.9  104637  61161.1  61080.2  23.79  22.7324  44.2247  43.461
   403.1328  60523.8  60531.1  103587  60547.4  60467.3  23.2719  22.2349  43.2246  42.4688
   403.3835  57220.6  57227.5  97932.3  57242.3  57166.6  22.5745  21.574  42.0058  41.2908
   403.6341  52034.8  52041  89054.7  52053.3  51984.4  21.7557  20.8026  40.6428  39.9914
   403.8847  45982.6  45988.1  78693.7  45997.2  45936.4  20.8892  19.9884  39.2294  38.6522
   404.1353  39897.1  39901.9  68275.9  39907.9  39855.1  20.0352  19.1862  37.8426  37.34
   404.3860  34283  34287.1  58665  34290.3  34244.9  19.2298  18.4294  36.5284  36.0947
   404.6366  29359.4  29362.9  50236.2  29363.6  29324.7  18.4886  17.7319  35.3062  34.9329
   404.8872  25164.1  25167.1  43054.3  25165.7  25132.4  17.8135  17.0957  34.1783  33.8565
   405.1378  21643  21645.6  37026.7  21642.5  21613.9  17.2002  16.5167  33.1384  32.8599
   405.3885  18707.1  18709.3  32000.9  18704.9  18680.1  16.6415  15.9882  32.1771  31.9348
   405.6391  16262.1  16264  27815.4  16258.4  16236.9  16.13  15.5035  31.2846  31.0723
   405.8897  14221.6  14223.3  24322.7  14216.9  14198.1  15.6589  15.0564  30.4516  30.2645
   406.1404  12512  12513.5  21396.3  12506.4  12489.9  15.2223  14.6414  29.6703  29.5044
   406.3910  11072.3  11073.6  18932  11066  11051.3  14.8154  14.2541  28.9342  28.7861
   406.6416  9853.02  9854.19  16845  9846.09  9833.09  14.4342  13.8907  28.2377  28.1048
   406.8922  8814.3  8815.35  15067.1  8806.93  8795.3  14.0752  13.5482  27.5764  27.4564
   407.1429  7924.21  7925.15  13543.7  7916.49  7906.04  13.7359  13.224  26.9464  26.8376
   407.3935  7157.07  7157.92  12230.8  7149.08  7139.65  13.4139  12.9162  26.3447  26.2454
   407.6441  6492.21  6492.98  11093  6484.02  6475.46  13.1074  12.623  25.7686  25.6777
   407.8947  5912.91  5913.61  10101.6  5904.56  5896.77  12.8149  12.343  25.2159  25.1323
   408.1454  5405.6  5406.23  9233.52  5397.13  5390.02  12.5351  12.0749  24.6848  24.6076
   408.3960  4959.17  4959.76  8469.63  4950.63  4944.11  12.2669  11.8178  24.1736  24.1021
   408.6466  4564.54  4565.08  7794.4  4555.95  4549.95  12.0093  11.5707  23.6809  23.6144
   408.8972  4214.18  4214.68  7194.96  4205.58  4200.04  11.7615  11.333  23.2054  23.1434
   409.1479  3901.87  3902.33  6660.65  3893.26  3888.14  11.5229  11.1039  22.7462  22.6882
   409.3985  3622.41  3622.83  6182.55  3613.81  3609.06  11.2927  10.883  22.3022  22.2478
   409.6491  3371.43  3371.82  5753.21  3362.86  3358.43  11.0705  10.6695  21.8726  21.8214
   409.8997  3145.25  3145.62  5366.34  3136.73  3132.6  10.8558  10.4632  21.4565  21.4083
   410.1504  2940.77  2941.12  5016.6  2932.3  2928.44  10.6481  10.2636  21.0534  21.0079
   410.4010  2755.35  2755.67  4699.46  2746.93  2743.32  10.447  10.0704  20.6625  20.6194
   410.6516  2586.71  2587.01  4411.06  2578.36  2574.97  10.2523  9.88312  20.2832  20.2424
   410.9023  2432.92  2433.2  4148.07  2424.64  2421.45  10.0634  9.70156  19.9151  19.8763
   411.1529  2292.3  2292.57  3907.63  2284.1  2281.1  9.88031  9.52542  19.5576  19.5206
   411.4035  2163.42  2163.67  3687.27  2155.3  2152.47  9.70257  9.35445  19.2102  19.175
   411.6541  2045.01  2045.25  3484.83  2036.97  2034.29  9.52998  9.18841  18.8725  18.8389
   411.9048  1935.98  1936.21  3298.45  1928.02  1925.49  9.3623  9.02708  18.5442  18.5121
   412.1554  1835.38  1835.59  3126.48  1827.51  1825.11  9.19933  8.87026  18.2248  18.194
   412.4060  1742.36  1742.56  2967.49  1734.58  1732.31  9.04087  8.71776  17.914  17.8845
   412.6566  1656.19  1656.39  2820.23  1648.5  1646.34  8.88673  8.56939  17.6114  17.5831
   412.9073  1576.22  1576.41  2683.57  1568.62  1566.57  8.73673  8.425  17.3167  17.2895
   413.1579  1501.88  1502.05  2556.52  1494.36  1492.41  8.5907  8.28443  17.0297  17.0036
   413.4085  1432.64  1432.81  2438.23  1425.22  1423.35  8.44851  8.14753  16.7501  16.7249
   413.6591  1368.06  1368.22  2327.89  1360.73  1358.95  8.30999  8.01417  16.4775  16.4533
   413.9098  1307.73  1307.88  2224.83  1300.49  1298.79  8.17502  7.8842  16.2118  16.1884
   414.1604  1251.29  1251.43  2128.42  1244.13  1242.51  8.04346  7.75752  15.9527  15.9301
   414.4110  1198.41  1198.55  2038.11  1191.34  1189.79  7.91519  7.63399  15.6999  15.6781
   414.6617  1148.8  1148.93  1953.38  1141.82  1140.33  7.7901  7.51351  15.4533  15.4322
   414.9123  1102.2  1102.33  1873.8  1095.31  1093.88  7.66806  7.39598  15.2126  15.1922
   415.1629  1058.37  1058.49  1798.96  1051.56  1050.19  7.54899  7.28129  14.9777  14.9579
   415.4135  1017.09  1017.21  1728.5  1010.37  1009.05  7.43277  7.16934  14.7484  14.7292
   415.6642  978.181  978.294  1662.07  971.546  970.278  7.31931  7.06005  14.5244  14.5058
   415.9148  941.455  941.563  1599.38  934.903  933.683  7.20853  6.95333  14.3056  14.2876
   416.1654  906.754  906.858  1540.15  900.285  899.11  7.10032  6.84909  14.0919  14.0744
   416.4160  873.933  874.033  1484.14  867.546  866.414  6.99462  6.74726  13.8831  13.866
   416.6667  842.86  842.956  1431.12  836.553  835.462  6.89133  6.64775  13.679  13.6624
   416.9173  813.413  813.505  1380.87  807.184  806.132  6.79039  6.5505  13.4794  13.4633
   417.1679  785.48  785.569  1333.22  779.329  778.314  6.69172  6.45543  13.2843  13.2687
   417.4185  758.959  759.046  1287.98  752.886  751.905  6.59526  6.36248  13.0936  13.0783
   417.6692  733.759  733.842  1244.99  727.761  726.813  6.50092  6.27159  12.907  12.8921
   417.9198  709.792  709.872  1204.11  703.869  702.952  6.40866  6.18268  12.7244  12.7099
   418.1704  686.979  687.057  1165.21  681.13  680.243  6.3184  6.09571  12.5458  12.5317
   418.4211  665.248  665.324  1128.16  659.471  658.613  6.23009  6.01061  12.3711  12.3573
   418.6717  644.532  644.605  1092.84  638.826  637.995  6.14367  5.92733  12.2  12.1866
   418.9223  624.768  624.839  1059.14  619.133  618.327  6.05908  5.84582  12.0326  12.0194
   419.1729  605.899  605.968  1026.98  600.333  599.552  5.97628  5.76602  11.8686  11.8558
   419.4236  587.873  587.939  996.255  582.374  581.617  5.89521  5.6879  11.7081  11.6955
   419.6742  570.639  570.703  966.885  565.207  564.473  5.81583  5.61139  11.5509  11.5386
   419.9248  554.152  554.214  938.791  548.786  548.073  5.73808  5.53646  11.3968  11.3849
   420.1754  538.37  538.43  911.9  533.068  532.376  5.66192  5.46306  11.246  11.2343
   420.4261  523.252  523.311  886.145  518.015  517.342  5.5873  5.39114  11.0981  11.0867
   420.6767  508.763  508.82  861.463  503.588  502.934  5.51419  5.32068  10.9533  10.942
   420.9273  494.868  494.923  837.796  489.754  489.119  5.44255  5.25162  10.8113  10.8003
   421.1779  481.534  481.588  815.088  476.482  475.864  5.37232  5.18394  10.6721  10.6614
   421.4286  468.733  468.785  793.288  463.74  463.139  5.30349  5.11759  10.5357  10.5251
   421.6792  456.436  456.487  772.35  451.502  450.916  5.236  5.05254  10.4019  10.3916
   421.9298  444.617  444.667  752.228  439.74  439.17  5.16982  4.98876  10.2707  10.2606
   422.1805  433.251  433.3  732.88  428.432  427.877  5.10492  4.9262  10.142  10.1321
   422.4311  422.317  422.364  714.268  417.553  417.012  5.04127  4.86485  10.0158  10.0061
   422.6817  411.791  411.837  696.354  407.083  406.555  4.97884  4.80466  9.89198  9.88245
   422.9323  401.655  401.7  679.104  397  396.486  4.91758  4.74562  9.7705  9.76115
   423.1830  391.889  391.933  662.486  387.287  386.786  4.85748  4.68768  9.6513  9.64212
   423.4336  382.475  382.518  646.47  377.926  377.437  4.7985  4.63083  9.53432  9.52531
   423.6842  373.397  373.439  631.026  368.899  368.422  4.74062  4.57503  9.4195  9.41065
   423.9348  364.639  364.679  616.128  360.192  359.726  4.6838  4.52026  9.30679  9.2981
   424.1855  356.186  356.225  601.751  351.788  351.333  4.62803  4.4665  9.19614  9.18761
   424.4361  348.024  348.062  587.87  343.675  343.231  4.57327  4.41371  9.0875  9.07912
   424.6867  340.139  340.177  574.463  335.839  335.405  4.51951  4.36188  8.98082  8.97259
   424.9373  332.521  332.557  561.509  328.268  327.844  4.46671  4.31098  8.87605  8.86796
   425.1880  325.155  325.191  548.987  320.949  320.534  4.41485  4.26099  8.77316  8.7652
   425.4386  318.032  318.067  536.879  313.872  313.467  4.36392  4.21189  8.67208  8.66426
   425.6892  311.142  311.176  525.166  307.027  306.63  4.31389  4.16365  8.57278  8.56509
   425.9398  304.473  304.506  513.832  300.402  300.014  4.26473  4.11626  8.47522  8.46766
   426.1905  298.016  298.049  502.861  293.99  293.61  4.21643  4.0697  8.37936  8.37192
   426.4411  291.764  291.795  492.236  287.78  287.409  4.16897  4.02394  8.28515  8.27783
   426.6917  285.706  285.737  481.944  281.765  281.401  4.12233  3.97898  8.19257  8.18537
   426.9424  279.836  279.866  471.972  275.937  275.58  4.07649  3.93478  8.10157  8.09448
   427.1930  274.145  274.174  462.305  270.287  269.938  4.03142  3.89134  8.01211  8.00513
   427.4436  268.626  268.655  452.932  264.809  264.467  3.98713  3.84863  7.92417  7.9173
   427.6942  263.273  263.301  443.84  259.495  259.16  3.94357  3.80664  7.8377  7.83094
   427.9449  258.078  258.106  435.019  254.34  254.012  3.90075  3.76535  7.75268  7.74602
   428.1955  253.036  253.064  426.458  249.337  249.015  3.85864  3.72475  7.66907  7.66251
   428.4461  248.141  248.168  418.148  244.48  244.164  3.81722  3.68482  7.58684  7.58038
   428.6967  243.387  243.413  410.077  239.763  239.454  3.77649  3.64555  7.50596  7.49959
   428.9474  238.769  238.794  402.238  235.181  234.878  3.73643  3.60692  7.4264  7.42013
   429.1980  234.281  234.306  394.621  230.73  230.433  3.69701  3.56892  7.34813  7.34195
   429.4486  229.919  229.943  387.218  226.403  226.112  3.65824  3.53153  7.27113  7.26504
   429.6992  225.677  225.702  380.021  222.198  221.911  3.62009  3.49475  7.19536  7.18936
   429.9499  221.553  221.577  373.023  218.108  217.827  3.58255  3.45855  7.12081  7.11489
   430.2005  217.541  217.564  366.216  214.13  213.854  3.5456  3.42293  7.04743  7.0416
   430.4511  213.637  213.66  359.593  210.26  209.989  3.50925  3.38788  6.97522  6.96947
   430.7018  209.838  209.86  353.149  206.494  206.228  3.47346  3.35337  6.90415  6.89847
   430.9524  206.139  206.161  346.876  202.828  202.567  3.43824  3.31941  6.83418  6.82859
   431.2030  202.538  202.559  340.768  199.259  199.002  3.40356  3.28597  6.7653  6.75979
   431.4536  199.03  199.051  334.82  195.783  195.531  3.36942  3.25306  6.69749  6.69205
   431.7043  195.614  195.634  329.027  192.398  192.15  3.33581  3.22065  6.63072  6.62535
   431.9549  192.284  192.304  323.382  189.099  188.856  3.30271  3.18873  6.56498  6.55968
   432.2055  189.04  189.059  317.881  185.885  185.646  3.27012  3.15731  6.50023  6.49501
   432.4561  185.877  185.896  312.519  182.752  182.517  3.23802  3.12636  6.43647  6.43131
   432.7068  182.793  182.812  307.292  179.698  179.467  3.20641  3.09587  6.37367  6.36858
   432.9574  179.785  179.804  302.195  176.719  176.492  3.17527  3.06585  6.31181  6.30678
   433.2080  176.852  176.87  297.223  173.815  173.591  3.1446  3.03627  6.25087  6.24591
   433.4586  173.989  174.007  292.373  170.981  170.761  3.11438  3.00714  6.19084  6.18594
   433.7093  171.197  171.214  287.64  168.216  167.999  3.08461  2.97843  6.13169  6.12685
   433.9599  168.471  168.488  283.022  165.517  165.304  3.05528  2.95015  6.07342  6.06864
   434.2105  165.81  165.826  278.514  162.883  162.674  3.02638  2.92228  6.01599  6.01127
   434.4612  163.211  163.228  274.112  160.312  160.106  2.9979  2.89481  5.9594  5.95474
   434.7118  160.674  160.69  269.814  157.801  157.598  2.96983  2.86775  5.90363  5.89903
   434.9624  158.196  158.212  265.616  155.349  155.149  2.94217  2.84107  5.84867  5.84412
   435.2130  155.774  155.79  261.516  152.953  152.756  2.91491  2.81478  5.79449  5.79
   435.4637  153.409  153.424  257.509  150.613  150.419  2.88803  2.78887  5.74109  5.73665
   435.7143  151.097  151.112  253.594  148.326  148.135  2.86154  2.76332  5.68844  5.68405
   435.9649  148.837  148.852  249.767  146.091  145.903  2.83542  2.73813  5.63654  5.6322
   436.2155  146.628  146.642  246.027  143.906  143.721  2.80967  2.7133  5.58536  5.58108
   436.4662  144.467  144.482  242.369  141.769  141.587  2.78428  2.68881  5.53491  5.53068
   436.7168  142.355  142.369  238.793  139.681  139.501  2.75924  2.66467  5.48516  5.48097
   436.9674  140.289  140.302  235.295  137.638  137.461  2.73455  2.64086  5.43609  5.43196
   437.2180  138.267  138.281  231.873  135.639  135.465  2.7102  2.61738  5.38771  5.38362
   437.4687  136.29  136.303  228.526  133.685  133.513  2.68619  2.59423  5.33998  5.33594
   437.7193  134.355  134.367  225.25  131.772  131.602  2.66251  2.57139  5.29292  5.28892
   437.9699  132.46  132.473  222.044  129.9  129.733  2.63915  2.54886  5.24649  5.24254
   438.2206  130.607  130.619  218.906  128.068  127.903  2.6161  2.52664  5.20069  5.19678
   438.4712  128.791  128.804  215.835  126.274  126.112  2.59337  2.50471  5.1555  5.15164
   438.7218  127.014  127.026  212.827  124.518  124.358  2.57094  2.48308  5.11093  5.10711
   438.9724  125.274  125.285  209.882  122.799  122.641  2.54881  2.46175  5.06695  5.06317
   439.2231  123.569  123.581  206.997  121.115  120.959  2.52698  2.44069  5.02355  5.01982
   439.4737  121.9  121.911  204.172  119.466  119.312  2.50544  2.41991  4.98073  4.97704
   439.7243  120.264  120.275  201.404  117.85  117.698  2.48418  2.39941  4.93848  4.93482
   439.9749  118.661  118.672  198.691  116.267  116.118  2.4632  2.37918  4.89678  4.89316
   440.2256  117.09  117.101  196.034  114.716  114.569  2.44249  2.35921  4.85562  4.85204
   440.4762  115.551  115.561  193.429  113.197  113.051  2.42205  2.3395  4.815  4.81146
   440.7268  114.042  114.052  190.876  111.707  111.563  2.40188  2.32005  4.7749  4.7714
   440.9774  112.563  112.573  188.373  110.247  110.104  2.38197  2.30084  4.73532  4.73186
   441.2281  111.113  111.122  185.919  108.815  108.675  2.36232  2.28189  4.69625  4.69282
   441.4787  109.69  109.7  183.512  107.411  107.273  2.34291  2.26317  4.65768  4.65429
   441.7293  108.296  108.305  181.152  106.035  105.898  2.32376  2.2447  4.6196  4.61624
   441.9799  106.928  106.937  178.837  104.685  104.55  2.30484  2.22646  4.582  4.57868
   442.2306  105.586  105.595  176.566  103.361  103.228  2.28617  2.20845  4.54488  4.54159
   442.4812  104.27  104.278  174.339  102.063  101.931  2.26773  2.19066  4.50822  4.50496
   442.7318  102.978  102.986  172.153  100.788  100.658  2.24952  2.1731  4.47202  4.4688
   442.9825  101.711  101.719  170.008  99.5384  99.4096  2.23153  2.15576  4.43627  4.43308
   443.2331  100.467  100.475  167.903  98.3117  98.1844  2.21377  2.13863  4.40097  4.39781
   443.4837  99.2469  99.2542  165.836  97.1079  96.9821  2.19623  2.12171  4.3661  4.36297
   443.7343  98.0489  98.056  163.808  95.9264  95.8021  2.17891  2.105  4.33166  4.32856
   443.9850  96.8729  96.8797  161.817  94.7668  94.6438  2.1618  2.0885  4.29764  4.29458
   444.2356  95.7183  95.7249  159.861  93.6283  93.5068  2.1449  2.0722  4.26404  4.261
   444.4862  94.5847  94.591  157.941  92.5107  92.3906  2.1282  2.05609  4.23084  4.22784
   444.7368  93.4715  93.4776  156.056  91.4134  91.2946  2.1117  2.04018  4.19805  4.19507
   444.9875  92.3784  92.3843  154.204  90.3359  90.2183  2.09541  2.02447  4.16565  4.1627
   445.2381  91.3049  91.3105  152.384  89.2777  89.1615  2.07931  2.00894  4.13364  4.13072
   445.4887  90.2504  90.2558  150.597  88.2385  88.1235  2.0634  1.99359  4.10201  4.09912
   445.7393  89.2147  89.2198  148.841  87.2178  87.1041  2.04768  1.97843  4.07076  4.0679
   445.9900  88.1972  88.2021  147.116  86.2152  86.1027  2.03215  1.96345  4.03988  4.03704
   446.2406  87.1976  87.2022  145.42  85.2304  85.119  2.0168  1.94865  4.00936  4.00655
   446.4912  86.2156  86.2199  143.754  84.2628  84.1526  2.00163  1.93402  3.9792  3.97642
   446.7419  85.2506  85.2546  142.116  83.3122  83.2031  1.98664  1.91956  3.9494  3.94664
   446.9925  84.3024  84.3061  140.506  82.3782  82.2702  1.97182  1.90527  3.91994  3.91721
   447.2431  83.3706  83.3741  138.923  81.4605  81.3535  1.95718  1.89114  3.89083  3.88812
   447.4937  82.4549  82.4581  137.367  80.5587  80.4527  1.9427  1.87718  3.86205  3.85937
   447.7444  81.5549  81.5578  135.837  79.6724  79.5675  1.9284  1.86338  3.8336  3.83095
   447.9950  80.6704  80.6729  134.333  78.8014  78.6975  1.91425  1.84974  3.80548  3.80285
   448.2456  79.801  79.8032  132.853  77.9455  77.8425  1.90027  1.83626  3.77768  3.77507
   448.4962  78.9464  78.9483  131.398  77.1041  77.0021  1.88645  1.82292  3.7502  3.74762
   448.7469  78.1064  78.108  129.966  76.2772  76.1761  1.87279  1.80974  3.72303  3.72047
   448.9975  77.2807  77.2819  128.558  75.4645  75.3643  1.85928  1.79671  3.69616  3.69363
   449.2481  76.469  76.4698  127.173  74.6656  74.5662  1.84592  1.78383  3.6696  3.66709
   449.4987  75.671  75.6715  125.81  73.8804  73.7818  1.83271  1.77109  3.64334  3.64085
   449.7494  74.8867  74.8868  124.469  73.1085  73.0108  1.81965  1.75849  3.61737  3.6149
   450.0000  74.1156  74.1153  123.149  72.3498  72.2529  1.80674  1.74603  3.59169  3.58925