File: examples/mos2/reference/raman_spectra4.dat
#Raman spectra
#Laser energy   2.78 eV
#Raman shift (cm-1), Raman Spectra (XX,YY,ZZ,s+s+,s-s-,XY,YX,s+s-,s-s+)
   350.0000  166.373  159.86  60.8038  47.6813  47.4108  113.462  112.254  228.419  228.438
   350.2506  168.636  162.038  61.3828  48.1357  47.8628  115.197  113.97  231.911  231.93
   350.5013  170.946  164.262  61.97  48.5966  48.3214  116.972  115.726  235.484  235.504
   350.7519  173.307  166.534  62.5658  49.0641  48.7866  118.788  117.522  239.14  239.16
   351.0025  175.718  168.855  63.1701  49.5385  49.2585  120.647  119.361  242.882  242.902
   351.2531  178.182  171.227  63.7833  50.0197  49.7373  122.549  121.244  246.712  246.733
   351.5038  180.701  173.651  64.4055  50.508  50.2232  124.497  123.171  250.634  250.655
   351.7544  183.275  176.129  65.0368  51.0035  50.7162  126.492  125.144  254.65  254.671
   352.0050  185.907  178.663  65.6774  51.5063  51.2165  128.535  127.166  258.763  258.784
   352.2556  188.598  181.254  66.3275  52.0167  51.7243  130.628  129.236  262.977  262.998
   352.5063  191.35  183.903  66.9873  52.5346  52.2396  132.773  131.358  267.294  267.316
   352.7569  194.165  186.614  67.6571  53.0603  52.7627  134.971  133.532  271.718  271.741
   353.0075  197.046  189.387  68.3369  53.594  53.2937  137.223  135.761  276.254  276.276
   353.2581  199.994  192.226  69.027  54.1357  53.8328  139.533  138.046  280.903  280.926
   353.5088  203.011  195.131  69.7276  54.6858  54.3802  141.901  140.389  285.671  285.694
   353.7594  206.099  198.105  70.439  55.2442  54.9359  144.331  142.792  290.562  290.585
   354.0100  209.262  201.15  71.1613  55.8113  55.5002  146.823  145.257  295.579  295.603
   354.2607  212.501  204.269  71.8947  56.3871  56.0732  149.38  147.787  300.726  300.751
   354.5113  215.819  207.465  72.6395  56.9719  56.6552  152.004  150.384  306.01  306.035
   354.7619  219.219  210.738  73.396  57.5659  57.2463  154.699  153.049  311.434  311.459
   355.0125  222.703  214.094  74.1644  58.1692  57.8467  157.465  155.786  317.003  317.029
   355.2632  226.274  217.533  74.9449  58.782  58.4566  160.307  158.597  322.723  322.749
   355.5138  229.936  221.06  75.7377  59.4046  59.0762  163.225  161.485  328.599  328.626
   355.7644  233.691  224.677  76.5432  60.0372  59.7058  166.225  164.452  334.637  334.664
   356.0150  237.543  228.387  77.3617  60.6799  60.3455  169.307  167.501  340.843  340.871
   356.2657  241.495  232.194  78.1933  61.333  60.9955  172.477  170.637  347.223  347.251
   356.5163  245.551  236.101  79.0384  61.9967  61.6561  175.735  173.861  353.783  353.812
   356.7669  249.715  240.111  79.8973  62.6712  62.3275  179.088  177.177  360.532  360.561
   357.0175  253.99  244.23  80.7702  63.3569  63.01  182.536  180.589  367.474  367.504
   357.2682  258.381  248.46  81.6576  64.0538  63.7037  186.086  184.1  374.62  374.65
   357.5188  262.892  252.806  82.5596  64.7624  64.409  189.739  187.715  381.975  382.006
   357.7694  267.528  257.272  83.4767  65.4828  65.1261  193.502  191.437  389.549  389.58
   358.0201  272.293  261.862  84.4091  66.2152  65.8553  197.377  195.27  397.35  397.382
   358.2707  277.193  266.583  85.3572  66.9601  66.5968  201.37  199.22  405.388  405.42
   358.5213  282.232  271.438  86.3214  67.7176  67.3509  205.485  203.291  413.672  413.705
   358.7719  287.416  276.433  87.302  68.488  68.1179  209.727  207.488  422.212  422.246
   359.0226  292.751  281.574  88.2994  69.2717  68.8981  214.102  211.816  431.019  431.053
   359.2732  298.243  286.866  89.314  70.0689  69.6919  218.615  216.281  440.104  440.139
   359.5238  303.898  292.316  90.3462  70.88  70.4994  223.272  220.888  449.479  449.515
   359.7744  309.724  297.93  91.3964  71.7053  71.3212  228.079  225.644  459.157  459.193
   360.0251  315.727  303.714  92.465  72.5451  72.1573  233.043  230.554  469.15  469.187
   360.2757  321.915  309.678  93.5524  73.3997  73.0084  238.171  235.627  479.472  479.51
   360.5263  328.295  315.827  94.6591  74.2696  73.8746  243.469  240.869  490.138  490.177
   360.7769  334.876  322.17  95.7856  75.155  74.7563  248.946  246.287  501.164  501.204
   361.0276  341.667  328.715  96.9323  76.0564  75.654  254.61  251.89  512.565  512.606
   361.2782  348.677  335.472  98.0997  76.9742  76.568  260.469  257.686  524.36  524.401
   361.5288  355.915  342.449  99.2883  77.9086  77.4986  266.532  263.684  536.565  536.608
   361.7794  363.393  349.657  100.499  78.8602  78.4465  272.809  269.894  549.201  549.245
   362.0301  371.12  357.106  101.731  79.8294  79.4118  279.31  276.325  562.288  562.332
   362.2807  379.11  364.808  102.987  80.8167  80.3951  286.045  282.989  575.847  575.893
   362.5313  387.373  372.774  104.265  81.8223  81.3969  293.027  289.896  589.902  589.949
   362.7820  395.923  381.018  105.568  82.8469  82.4176  300.267  297.058  604.477  604.525
   363.0326  404.774  389.551  106.896  83.8909  83.4577  307.779  304.489  619.598  619.647
   363.2832  413.941  398.389  108.248  84.9548  84.5176  315.575  312.202  635.292  635.342
   363.5338  423.438  407.547  109.626  86.0391  85.5979  323.671  320.21  651.589  651.64
   363.7845  433.284  417.04  111.031  87.1444  86.6992  332.081  328.531  668.519  668.572
   364.0351  443.494  426.886  112.463  88.2711  87.8219  340.823  337.179  686.117  686.171
   364.2857  454.089  437.102  113.923  89.4199  88.9667  349.914  346.172  704.417  704.473
   364.5363  465.088  447.709  115.411  90.5913  90.1341  359.372  355.529  723.458  723.515
   364.7870  476.512  458.727  116.929  91.7859  91.3247  369.219  365.27  743.279  743.338
   365.0376  488.385  470.177  118.477  93.0044  92.5392  379.475  375.416  763.924  763.984
   365.2882  500.73  482.084  120.056  94.2474  93.7782  390.162  385.989  785.439  785.501
   365.5388  513.575  494.473  121.666  95.5156  95.0423  401.307  397.014  807.874  807.937
   365.7895  526.946  507.37  123.309  96.8096  96.3323  412.935  408.517  831.281  831.346
   366.0401  540.875  520.805  124.986  98.1301  97.649  425.074  420.526  855.717  855.784
   366.2907  555.392  534.809  126.697  99.478  98.9929  437.755  433.07  881.243  881.312
   366.5414  570.533  549.415  128.444  100.854  100.365  451.01  446.183  907.925  907.996
   366.7920  586.335  564.659  130.226  102.259  101.766  464.874  459.899  935.834  935.907
   367.0426  602.837  580.579  132.047  103.693  103.197  479.386  474.255  965.046  965.121
   367.2932  620.084  597.218  133.905  105.158  104.658  494.585  489.291  995.642  995.719
   367.5439  638.12  614.62  135.803  106.654  106.151  510.516  505.051  1027.71  1027.79
   367.7945  656.998  632.834  137.742  108.183  107.676  527.227  521.583  1061.35  1061.43
   368.0451  676.77  651.912  139.722  109.745  109.234  544.769  538.936  1096.66  1096.75
   368.2957  697.496  671.911  141.746  111.341  110.827  563.198  557.167  1133.76  1133.85
   368.5464  719.239  692.892  143.813  112.973  112.455  582.574  576.335  1172.76  1172.85
   368.7970  742.069  714.923  145.927  114.64  114.12  602.963  596.505  1213.8  1213.9
   369.0476  766.061  738.077  148.087  116.346  115.823  624.436  617.748  1257.03  1257.13
   369.2982  791.296  762.431  150.295  118.089  117.564  647.073  640.141  1302.59  1302.69
   369.5489  817.865  788.073  152.553  119.873  119.345  670.957  663.769  1350.67  1350.77
   369.7995  845.864  815.097  154.863  121.698  121.167  696.181  688.723  1401.45  1401.55
   370.0501  875.4  843.605  157.225  123.564  123.032  722.848  715.103  1455.12  1455.24
   370.3008  906.591  873.711  159.642  125.475  124.941  751.069  743.021  1511.93  1512.05
   370.5514  939.564  905.539  162.114  127.43  126.896  780.966  772.597  1572.11  1572.23
   370.8020  974.459  939.225  164.645  129.432  128.897  812.674  803.964  1635.93  1636.06
   371.0526  1011.43  974.918  167.235  131.482  130.947  846.341  837.269  1703.7  1703.83
   371.3033  1050.66  1012.78  169.887  133.582  133.047  882.13  872.674  1775.74  1775.88
   371.5539  1092.32  1053.01  172.602  135.733  135.198  920.224  910.358  1852.42  1852.56
   371.8045  1136.63  1095.79  175.383  137.937  137.403  960.821  950.52  1934.14  1934.28
   372.0551  1183.82  1141.35  178.232  140.195  139.664  1004.15  993.38  2021.34  2021.49
   372.3058  1234.15  1189.95  181.15  142.511  141.983  1050.45  1039.18  2114.54  2114.7
   372.5564  1287.91  1241.85  184.141  144.885  144.36  1100  1088.2  2214.28  2214.44
   372.8070  1345.42  1297.38  187.207  147.32  146.8  1153.11  1140.74  2321.18  2321.36
   373.0576  1407.04  1356.89  190.349  149.817  149.304  1210.13  1197.15  2435.95  2436.13
   373.3083  1473.17  1420.75  193.571  152.38  151.874  1271.45  1257.81  2559.37  2559.56
   373.5589  1544.28  1489.42  196.876  155.011  154.513  1337.5  1323.15  2692.31  2692.51
   373.8095  1620.88  1563.39  200.266  157.712  157.225  1408.78  1393.66  2835.78  2835.99
   374.0602  1703.54  1643.23  203.744  160.486  160.01  1485.85  1469.91  2990.9  2991.13
   374.3108  1792.94  1729.57  207.313  163.335  162.874  1569.35  1552.51  3158.96  3159.2
   374.5614  1889.83  1823.15  210.977  166.264  165.819  1660  1642.18  3341.41  3341.66
   374.8120  1995.06  1924.79  214.739  169.274  168.848  1758.63  1739.75  3539.93  3540.19
   375.0627  2109.64  2035.46  218.602  172.37  171.965  1866.19  1846.16  3756.42  3756.7
   375.3133  2234.69  2156.25  222.571  175.554  175.175  1983.79  1962.49  3993.09  3993.39
   375.5639  2371.52  2288.43  226.648  178.831  178.482  2112.67  2089.99  4252.5  4252.81
   375.8145  2521.67  2433.47  230.838  182.206  181.889  2254.32  2230.12  4537.58  4537.91
   376.0652  2686.91  2593.1  235.146  185.681  185.403  2410.44  2384.56  4851.79  4852.14
   376.3158  2869.31  2769.3  239.575  189.263  189.029  2583.03  2555.29  5199.13  5199.51
   376.5664  3071.3  2964.44  244.13  192.955  192.773  2774.44  2744.64  5584.34  5584.75
   376.8170  3295.75  3181.29  248.816  196.765  196.641  2987.43  2955.34  6012.99  6013.42
   377.0677  3546.08  3423.14  253.638  200.698  200.641  3225.29  3190.65  6491.68  6492.14
   377.3183  3826.34  3693.91  258.602  204.76  204.782  3491.93  3454.42  7028.28  7028.78
   377.5689  4141.38  3998.29  263.712  208.96  209.072  3792.04  3751.3  7632.21  7632.76
   377.8195  4497.04  4341.93  268.975  213.305  213.522  4131.25  4086.86  8314.83  8315.42
   378.0702  4900.4  4731.66  274.398  217.806  218.144  4516.38  4467.85  9089.86  9090.5
   378.3208  5360.06  5175.81  279.985  222.471  222.952  4955.75  4902.5  9974  9974.7
   378.5714  5886.55  5684.53  285.745  227.314  227.962  5459.52  5400.84  10987.7  10988.5
   378.8221  6492.81  6270.34  291.684  232.349  233.192  6040.16  5975.24  12156.1  12156.9
   379.0727  7194.83  6948.69  297.81  237.591  238.664  6713.14  6640.98  13510.2  13511.1
   379.3233  8012.44  7738.75  304.131  243.06  244.405  7497.59  7417  15088.6  15089.7
   379.5739  8970.35  8664.4  310.655  248.777  250.447  8417.37  8326.88  16939.3  16940.5
   379.8246  10099.3  9755.34  317.39  254.77  256.827  9502.19  9400.03  19122  19123.3
   380.0752  11437.6  11048.6  324.347  261.07  263.592  10789  10673  21711  21712.4
   380.3258  13032.4  12589.7  331.535  267.715  270.797  12323.3  12190.8  24798.1  24799.7
   380.5764  14941.2  14434.3  338.964  274.75  278.509  14160.8  14008.5  28494.8  28496.7
   380.8271  17231.7  16647.8  346.644  282.227  286.804  16366.6  16190.7  32932.8  32935
   381.0777  19979.5  19303.2  354.589  290.203  295.77  19013.8  18809.3  38258.7  38261.2
   381.3283  23258.9  22472.4  362.809  298.735  305.49  22173.8  21935.4  44616.7  44619.6
   381.5789  27122.4  26206  371.318  307.867  316.027  25897.1  25618.6  52108.5  52111.8
   381.8296  31560.2  30494.6  380.129  317.604  327.383  30173.4  29848.9  60714.1  60718
   382.0802  36432.6  35203.3  389.257  327.865  339.425  34866.7  34491.7  70161.3  70165.9
   382.3308  41386  39990.2  398.717  338.436  351.804  39634.1  39207.8  79761.2  79766.6
   382.5815  45798.9  44254.9  408.526  348.931  363.9  43874.4  43402.5  88305.9  88312.1
   382.8321  48860.6  47213.5  418.7  358.843  374.903  46805.1  46301.7  94220.1  94227.1
   383.0827  49850.8  48170.4  429.258  367.728  384.096  47734.1  47220.7  96108.3  96115.8
   383.3333  48509  46873.5  440.219  375.435  391.235  46414.6  45915.4  93469  93476.8
   383.5840  45190.1  43665.8  451.605  382.21  396.699  43193.1  42728.5  86995.5  87003
   383.8346  40654.6  39282.4  463.437  388.559  401.278  38804.6  38387.3  78166.1  78173
   384.0852  35696.7  34490.8  475.739  395.008  405.798  34013.9  33648.1  68521.2  68527.5
   384.3358  30894.7  29849.9  488.537  401.946  410.864  29376.6  29060.7  59181.9  59187.3
   384.5865  26562.6  25663  501.856  409.594  416.813  25193.4  24922.5  50755.2  50759.8
   384.8371  22813.1  22039.2  515.726  418.046  423.783  21571.9  21340  43459.2  43463.2
   385.0877  19642.4  18974.7  530.178  427.324  431.792  18507.8  18308.8  37285.5  37289
   385.3383  16992.2  16413.3  545.244  437.415  440.806  15944.5  15773.1  32121  32123.9
   385.5890  14787.2  14282.1  560.96  448.299  450.777  13809.3  13660.8  27818.9  27821.4
   385.8396  12952.6  12508.8  577.363  459.957  461.657  12030.3  11901  24234.4  24236.6
   386.0902  11422.4  11029.8  594.494  472.38  473.412  10543.7  10430.4  21239.2  21241.2
   386.3409  10140.8  9790.97  612.396  485.565  486.019  9295.86  9195.99  18725.2  18726.9
   386.5915  9062.31  8748.37  631.117  499.52  499.467  8242.87  8154.32  16603.7  16605.2
   386.8421  8149.92  7866.32  650.706  514.261  513.758  7349.14  7270.21  14803.1  14804.4
   387.0927  7374.03  7116.17  671.219  529.811  528.905  6586.11  6515.39  13265.9  13267.1
   387.3434  6710.86  6474.93  692.714  546.202  544.929  5930.84  5867.17  11945.8  11946.9
   387.5940  6141.31  5924.16  715.254  563.47  561.861  5364.9  5307.33  10805.7  10806.7
   387.8446  5649.99  5448.98  738.908  581.66  579.737  4873.44  4821.16  9815.66  9816.52
   388.0952  5224.47  5037.37  763.75  600.822  598.603  4444.41  4396.74  8951.39  8952.17
   388.3459  4854.62  4679.54  789.862  621.012  618.511  4068  4024.4  8193.16  8193.88
   388.5965  4532.18  4367.51  817.33  642.293  639.521  3736.22  3696.19  7524.82  7525.48
   388.8471  4250.4  4094.75  846.249  664.736  661.7  3442.46  3405.59  6933.08  6933.68
   389.0977  4003.68  3855.84  876.724  688.418  685.123  3181.27  3147.21  6406.95  6407.51
   389.3484  3787.4  3646.34  908.868  713.425  709.872  2948.11  2916.57  5937.3  5937.82
   389.5990  3597.73  3462.52  942.803  739.851  736.041  2739.19  2709.91  5516.49  5516.97
   389.8496  3431.47  3301.29  978.664  767.798  763.73  2551.33  2524.08  5138.1  5138.55
   390.1003  3285.94  3160.07  1016.6  797.382  793.052  2381.85  2356.43  4796.72  4797.14
   390.3509  3158.92  3036.69  1056.77  828.728  824.13  2228.46  2204.69  4487.75  4488.15
   390.6015  3048.51  2929.35  1099.36  861.973  857.101  2089.21  2066.95  4207.28  4207.66
   390.8521  2953.16  2836.5  1144.56  897.272  892.116  1962.45  1941.56  3951.97  3952.32
   391.1028  2871.55  2756.9  1192.59  934.791  929.342  1846.75  1827.11  3718.92  3719.26
   391.3534  2802.6  2689.48  1243.69  974.718  968.963  1740.87  1722.38  3505.66  3505.98
   391.6040  2745.4  2633.37  1298.12  1017.26  1011.19  1643.74  1626.31  3310.04  3310.34
   391.8546  2699.23  2587.87  1356.17  1062.65  1056.24  1554.45  1537.99  3130.19  3130.47
   392.1053  2663.52  2552.41  1418.18  1111.13  1104.37  1472.17  1456.61  2964.47  2964.74
   392.3559  2637.81  2526.55  1484.5  1163  1155.86  1396.2  1381.47  2811.45  2811.71
   392.6065  2621.8  2509.99  1555.55  1218.57  1211.04  1325.91  1311.95  2669.89  2670.14
   392.8571  2615.26  2502.51  1631.79  1278.2  1270.25  1260.77  1247.52  2538.68  2538.92
   393.1078  2618.12  2504.01  1713.71  1342.29  1333.89  1200.28  1187.7  2416.85  2417.08
   393.3584  2630.38  2514.52  1801.9  1411.29  1402.41  1144.02  1132.06  2303.53  2303.75
   393.6090  2652.17  2534.12  1897  1485.7  1476.31  1091.6  1080.23  2197.95  2198.16
   393.8596  2683.73  2563.05  1999.76  1566.1  1556.17  1042.69  1031.86  2099.43  2099.64
   394.1103  2725.42  2601.64  2111  1653.15  1642.62  996.981  986.666  2007.36  2007.57
   394.3609  2777.7  2650.32  2231.67  1747.58  1736.41  954.206  944.375  1921.2  1921.4
   394.6115  2841.19  2709.68  2362.86  1850.25  1838.38  914.121  904.746  1840.45  1840.65
   394.8622  2916.67  2780.43  2505.8  1962.12  1949.5  876.507  867.565  1764.69  1764.88
   395.1128  3005.07  2863.48  2661.92  2084.3  2070.86  841.169  832.638  1693.5  1693.69
   395.3634  3107.52  2959.88  2832.86  2218.1  2203.76  807.93  799.789  1626.53  1626.72
   395.6140  3225.38  3070.91  3020.54  2364.99  2349.67  776.628  768.861  1563.47  1563.66
   395.8647  3360.29  3198.13  3227.17  2526.71  2510.31  747.12  739.71  1504.02  1504.2
   396.1153  3514.16  3343.35  3455.32  2705.29  2687.7  719.274  712.208  1447.91  1448.09
   396.3659  3689.32  3508.76  3708.04  2903.1  2884.19  692.97  686.236  1394.9  1395.09
   396.6165  3888.5  3696.96  3988.89  3122.94  3102.56  668.101  661.689  1344.78  1344.97
   396.8672  4114.99  3911.06  4302.11  3368.1  3346.1  644.568  638.47  1297.35  1297.53
   397.1178  4372.72  4154.78  4652.71  3642.54  3618.71  622.281  616.491  1252.42  1252.61
   397.3684  4666.42  4432.6  5046.7  3950.94  3925.07  601.16  595.674  1209.83  1210.02
   397.6190  5001.8  4749.92  5491.3  4298.96  4270.78  581.13  575.945  1169.43  1169.63
   397.8697  5385.76  5113.28  5995.23  4693.41  4662.62  562.123  557.241  1131.08  1131.29
   398.1203  5826.73  5530.67  6569.06  5142.59  5108.83  544.081  539.504  1094.67  1094.89
   398.3709  6334.98  6011.82  7225.72  5656.61  5619.45  526.946  522.682  1060.08  1060.3
   398.6216  6923.19  6568.74  7981.08  6247.89  6206.81  510.672  506.73  1027.2  1027.43
   398.8722  7606.97  7216.21  8854.68  6931.73  6886.12  495.215  491.608  995.949  996.2
   399.1228  8405.72  7972.6  9870.78  7727.12  7676.25  480.537  477.285  966.25  966.518
   399.3734  9343.53  8860.75  11059.5  8657.64  8600.62  466.606  463.736  938.033  938.321
   399.6241  10450.5  9909.13  12458.4  9752.7  9688.43  453.398  450.941  911.24  911.552
   399.8747  11763.9  11153.2  14114.3  11048.9  10976  440.892  438.892  885.827  886.169
   400.1253  13330.3  12636.9  16085  12591.5  12508.5  429.077  427.587  861.761  862.139
   400.3759  15206.5  14414  18441.4  14436.1  14340.9  417.949  417.036  839.024  839.445
   400.6266  17460.4  16549  21268.5  16649.2  16539.3  407.509  407.258  817.609  818.083
   400.8772  20169.7  19115.4  24663.2  19306.5  19179.1  397.769  398.282  797.523  798.061
   401.1278  23415.4  22190.1  28726.6  22487.3  22338.9  388.741  390.14  778.779  779.393
   401.3784  27265.6  25837.4  33543.7  26258.1  26084.7  380.435  382.859  761.383  762.088
   401.6291  31741.1  30077  39140.4  30639.1  30436.8  372.837  376.43  745.306  746.117
   401.8797  36754.7  34826.4  45408  35545.3  35310.6  365.884  370.77  730.435  731.365
   402.1303  42025.3  39819.4  51995.8  40702.2  40433.4  359.42  365.655  716.503  717.559
   402.3810  46999  44531.1  58212.7  45568.8  45267.8  353.158  360.668  703.029  704.203
   402.6316  50866.4  48194.7  63048.9  49354.6  49028.6  346.686  355.206  689.327  690.592
   402.8822  52780.9  50008.3  65448.1  51232.6  50894.2  339.579  348.641  674.682  675.992
   403.1328  52246.6  49501.9  64791.4  50718.5  50383.5  331.579  340.6  658.664  659.96
   403.3835  49404.2  46809  61254.6  47950  47633.3  322.742  331.17  641.359  642.585
   403.6341  44946.4  42585.7  55701.9  43603.3  43315.3  313.388  320.839  623.295  624.414
   403.8847  39745.1  37658.2  49221.3  38530.3  38275.9  303.93  310.223  605.149  606.142
   404.1353  34515.7  32703.9  42705.2  33429.5  33208.8  294.702  299.828  587.471  588.338
   404.3860  29690.9  28133.1  36693.7  28723.8  28534.1  285.903  289.956  570.588  571.338
   404.6366  25459.1  24123.9  31421.7  24596.9  24434.5  277.613  280.732  554.629  555.276
   404.8872  21852.5  20707.1  26929.6  21080.5  20941.3  269.84  272.169  539.599  540.159
   405.1378  18824.7  17838.7  23159.4  18129.2  18009.6  262.55  264.225  525.443  525.929
   405.3885  16299.4  15446.2  20015.9  15668.5  15565.1  255.697  256.835  512.081  512.506
   405.6391  14195.6  13453  17398  13619.2  13529.3  249.234  249.933  499.43  499.804
   405.8897  12439.2  11789  15213.3  11909.1  11830.5  243.117  243.457  487.415  487.746
   406.1404  10966.9  10394.1  13382.9  10476.3  10407.1  237.307  237.354  475.97  476.265
   406.3910  9726.38  9218.79  11841.6  9269.66  9208.51  231.772  231.579  465.039  465.303
   406.6416  8675.19  8222.85  10536.2  8247.82  8193.41  226.484  226.095  454.572  454.811
   406.8922  7779.14  7373.89  9424.18  7377.35  7328.69  221.42  220.87  444.531  444.747
   407.1429  7010.8  6645.91  8471.33  6631.46  6587.73  216.562  215.878  434.88  435.077
   407.3935  6348.11  6018.03  7650.13  5988.63  5949.14  211.892  211.099  425.59  425.771
   407.6441  5773.34  5473.43  6938.44  5431.52  5395.72  207.396  206.513  416.636  416.802
   407.8947  5272.12  4998.52  6318.37  4946.13  4913.53  203.062  202.105  407.995  408.149
   408.1454  4832.8  4582.25  5775.38  4521.08  4491.28  198.879  197.862  399.648  399.791
   408.3960  4445.86  4215.61  5297.58  4147.06  4119.73  194.839  193.772  391.579  391.712
   408.6466  4103.48  3891.18  4875.24  3816.45  3791.3  190.932  189.825  383.771  383.895
   408.8972  3799.21  3602.85  4500.3  3522.95  3499.74  187.151  186.013  376.21  376.326
   409.1479  3527.69  3345.56  4166.1  3261.33  3239.86  183.49  182.326  368.885  368.994
   409.3985  3284.46  3115.07  3867.06  3027.25  3007.31  179.943  178.759  361.783  361.886
   409.6491  3065.77  2907.82  3598.52  2817.03  2798.49  176.503  175.304  354.894  354.991
   409.8997  2868.46  2720.84  3356.53  2627.6  2610.31  173.167  171.956  348.209  348.301
   410.1504  2689.86  2551.58  3137.78  2456.36  2440.2  169.928  168.71  341.718  341.806
   410.4010  2527.7  2397.9  2939.42  2301.08  2285.95  166.784  165.561  335.414  335.497
   410.6516  2380.03  2257.94  2759.03  2159.88  2145.67  163.729  162.504  329.288  329.367
   410.9023  2245.17  2130.13  2594.53  2031.11  2017.75  160.76  159.535  323.333  323.408
   411.1529  2121.71  2013.11  2444.14  1913.38  1900.8  157.874  156.65  317.542  317.614
   411.4035  2008.38  1905.69  2306.31  1805.49  1793.62  155.067  153.847  311.909  311.978
   411.6541  1904.12  1806.87  2179.69  1706.37  1695.15  152.336  151.121  306.428  306.494
   411.9048  1807.97  1715.73  2063.11  1615.11  1604.49  149.678  148.469  301.093  301.156
   412.1554  1719.12  1631.51  1955.55  1530.91  1520.85  147.091  145.889  295.898  295.959
   412.4060  1636.85  1553.52  1856.11  1453.06  1443.52  144.572  143.377  290.839  290.898
   412.6566  1560.52  1481.16  1763.99  1380.96  1371.89  142.118  140.932  285.91  285.967
   412.9073  1489.56  1413.89  1678.52  1314.04  1305.41  139.727  138.55  281.108  281.162
   413.1579  1423.49  1351.25  1599.05  1251.84  1243.62  137.397  136.229  276.427  276.48
   413.4085  1361.86  1292.82  1525.06  1193.92  1186.08  135.125  133.968  271.863  271.914
   413.6591  1304.28  1238.23  1456.05  1139.89  1132.41  132.91  131.763  267.413  267.462
   413.9098  1250.4  1187.14  1391.59  1089.43  1082.28  130.75  129.614  263.072  263.12
   414.1604  1199.91  1139.27  1331.28  1042.23  1035.39  128.642  127.517  258.837  258.883
   414.4110  1152.52  1094.34  1274.79  998.003  991.458  126.586  125.472  254.704  254.749
   414.6617  1107.99  1052.11  1221.8  956.52  950.248  124.579  123.477  250.67  250.714
   414.9123  1066.08  1012.37  1172.03  917.555  911.541  122.62  121.529  246.732  246.774
   415.1629  1026.6  974.931  1125.22  880.911  875.138  120.707  119.627  242.887  242.928
   415.4135  989.353  939.609  1081.14  846.407  840.861  118.839  117.771  239.132  239.171
   415.6642  954.176  906.248  1039.59  813.881  808.549  117.014  115.958  235.463  235.502
   415.9148  920.915  874.704  1000.38  783.186  778.056  115.232  114.186  231.879  231.917
   416.1654  889.433  844.845  963.333  754.186  749.247  113.49  112.456  228.377  228.413
   416.4160  859.602  816.551  928.299  726.761  722.003  111.787  110.765  224.953  224.989
   416.6667  831.308  789.714  895.134  700.798  696.211  110.123  109.112  221.607  221.641
   416.9173  804.445  764.233  863.707  676.196  671.771  108.495  107.496  218.334  218.368
   417.1679  778.917  740.018  833.899  652.862  648.59  106.904  105.916  215.135  215.168
   417.4185  754.635  716.984  805.602  630.711  626.585  105.348  104.371  212.005  212.037
   417.6692  731.518  695.054  778.716  609.664  605.676  103.826  102.86  208.943  208.975
   417.9198  709.492  674.158  753.149  589.649  585.793  102.336  101.382  205.948  205.978
   418.1704  688.487  654.231  728.816  570.6  566.87  100.879  99.9351  203.016  203.046
   418.4211  668.442  635.213  705.639  552.457  548.845  99.452  98.5194  200.147  200.177
   418.6717  649.296  617.048  683.547  535.163  531.665  98.0557  97.1339  197.339  197.367
   418.9223  630.996  599.685  662.473  518.665  515.276  96.6887  95.7775  194.589  194.617
   419.1729  613.493  583.076  642.355  502.917  499.631  95.3502  94.4494  191.897  191.924
   419.4236  596.738  567.178  623.137  487.873  484.686  94.0394  93.149  189.26  189.287
   419.6742  580.691  551.95  604.767  473.492  470.399  92.7555  91.8753  186.677  186.704
   419.9248  565.309  537.354  587.194  459.735  456.733  91.4978  90.6278  184.147  184.173
   420.1754  550.558  523.355  570.375  446.568  443.653  90.2656  89.4056  181.669  181.694
   420.4261  536.401  509.92  554.266  433.958  431.125  89.0582  88.208  179.24  179.265
   420.6767  522.807  497.018  538.828  421.872  419.119  87.8749  87.0345  176.859  176.884
   420.9273  509.745  484.621  524.024  410.284  407.606  86.7151  85.8843  174.526  174.55
   421.1779  497.188  472.703  509.821  399.165  396.561  85.5782  84.7568  172.239  172.262
   421.4286  485.11  461.238  496.186  388.491  385.957  84.4636  83.6515  169.996  170.019
   421.6792  473.485  450.204  483.089  378.238  375.772  83.3706  82.5677  167.797  167.82
   421.9298  462.291  439.578  470.503  368.386  365.984  82.2987  81.505  165.641  165.663
   422.1805  451.507  429.341  458.402  358.912  356.572  81.2475  80.4626  163.526  163.548
   422.4311  441.111  419.473  446.76  349.799  347.519  80.2163  79.4403  161.451  161.472
   422.6817  431.086  409.956  435.555  341.027  338.805  79.2046  78.4373  159.416  159.437
   422.9323  421.414  400.773  424.766  332.581  330.414  78.212  77.4533  157.418  157.439
   423.1830  412.078  391.909  414.372  324.444  322.33  77.238  76.4877  155.459  155.479
   423.4336  403.061  383.348  404.354  316.602  314.539  76.282  75.5401  153.535  153.555
   423.6842  394.35  375.077  394.694  309.04  307.027  75.3438  74.6101  151.647  151.667
   423.9348  385.93  367.083  385.376  301.745  299.78  74.4228  73.6972  149.794  149.813
   424.1855  377.789  359.352  376.383  294.705  292.787  73.5186  72.801  147.975  147.994
   424.4361  369.913  351.874  367.701  287.909  286.034  72.6308  71.921  146.188  146.207
   424.6867  362.292  344.636  359.315  281.344  279.513  71.759  71.057  144.434  144.453
   424.9373  354.913  337.629  351.212  275.001  273.211  70.9028  70.2085  142.711  142.73
   425.1880  347.767  330.843  343.38  268.87  267.12  70.0619  69.3751  141.019  141.037
   425.4386  340.844  324.268  335.807  262.941  261.231  69.2359  68.5565  139.357  139.375
   425.6892  334.134  317.895  328.481  257.206  255.533  68.4244  67.7523  137.724  137.742
   425.9398  327.628  311.716  321.392  251.657  250.02  67.6272  66.9623  136.12  136.137
   426.1905  321.318  305.723  314.529  246.285  244.683  66.8438  66.1859  134.544  134.56
   426.4411  315.197  299.909  307.884  241.082  239.515  66.0739  65.4231  132.994  133.011
   426.6917  309.255  294.265  301.446  236.043  234.509  65.3173  64.6734  131.472  131.488
   426.9424  303.487  288.786  295.209  231.16  229.657  64.5737  63.9365  129.975  129.991
   427.1930  297.886  283.465  289.162  226.427  224.955  63.8426  63.2122  128.504  128.52
   427.4436  292.444  278.296  283.299  221.837  220.396  63.124  62.5001  127.058  127.073
   427.6942  287.156  273.273  277.613  217.386  215.973  62.4174  61.8  125.636  125.651
   427.9449  282.016  268.39  272.096  213.067  211.683  61.7226  61.1116  124.238  124.253
   428.1955  277.019  263.642  266.741  208.875  207.518  61.0394  60.4347  122.863  122.878
   428.4461  272.158  259.024  261.543  204.806  203.476  60.3674  59.769  121.511  121.525
   428.6967  267.429  254.531  256.495  200.854  199.55  59.7066  59.1142  120.181  120.195
   428.9474  262.827  250.158  251.591  197.016  195.737  59.0565  58.4702  118.872  118.887
   429.1980  258.348  245.902  246.827  193.287  192.032  58.417  57.8366  117.585  117.6
   429.4486  253.986  241.758  242.197  189.662  188.431  57.7878  57.2133  116.319  116.333
   429.6992  249.738  237.721  237.695  186.138  184.93  57.1688  56.6001  115.073  115.087
   429.9499  245.601  233.789  233.318  182.712  181.526  56.5596  55.9966  113.848  113.861
   430.2005  241.569  229.958  229.06  179.379  178.215  55.9602  55.4028  112.641  112.654
   430.4511  237.639  226.223  224.918  176.137  174.994  55.3702  54.8184  111.454  111.467
   430.7018  233.808  222.583  220.887  172.981  171.859  54.7895  54.2432  110.285  110.298
   430.9524  230.072  219.033  216.963  169.91  168.808  54.218  53.677  109.135  109.148
   431.2030  226.429  215.57  213.143  166.92  165.837  53.6553  53.1196  108.002  108.015
   431.4536  222.875  212.192  209.423  164.007  162.944  53.1013  52.5709  106.888  106.9
   431.7043  219.407  208.896  205.799  161.171  160.126  52.5559  52.0307  105.79  105.802
   431.9549  216.022  205.678  202.268  158.407  157.38  52.0189  51.4987  104.709  104.721
   432.2055  212.718  202.538  198.828  155.714  154.705  51.49  50.9749  103.645  103.657
   432.4561  209.492  199.471  195.474  153.089  152.097  50.9692  50.459  102.597  102.608
   432.7068  206.341  196.476  192.205  150.53  149.554  50.4563  49.951  101.564  101.576
   432.9574  203.263  193.551  189.016  148.034  147.075  49.9511  49.4506  100.547  100.559
   433.2080  200.257  190.693  185.907  145.6  144.657  49.4534  48.9576  99.5457  99.5572
   433.4586  197.319  187.9  182.873  143.226  142.298  48.9631  48.4721  98.559  98.5703
   433.7093  194.447  185.17  179.913  140.909  139.996  48.4801  47.9937  97.5869  97.5981
   433.9599  191.64  182.501  177.024  138.648  137.75  48.0042  47.5223  96.6291  96.6401
   434.2105  188.895  179.892  174.204  136.441  135.557  47.5353  47.0579  95.6853  95.6963
   434.4612  186.211  177.34  171.451  134.286  133.417  47.0733  46.6003  94.7553  94.7661
   434.7118  183.586  174.844  168.763  132.182  131.326  46.6179  46.1493  93.8389  93.8495
   434.9624  181.018  172.402  166.137  130.127  129.285  46.1691  45.7049  92.9356  92.9462
   435.2130  178.505  170.013  163.572  128.12  127.29  45.7268  45.2668  92.0454  92.0558
   435.4637  176.046  167.675  161.066  126.159  125.342  45.2908  44.835  91.1678  91.1782
   435.7143  173.639  165.386  158.617  124.242  123.438  44.861  44.4094  90.3028  90.313
   435.9649  171.283  163.146  156.224  122.369  121.577  44.4373  43.9898  89.4501  89.4602
   436.2155  168.977  160.952  153.884  120.538  119.758  44.0196  43.5761  88.6094  88.6193
   436.4662  166.718  158.804  151.596  118.748  117.979  43.6078  43.1683  87.7804  87.7903
   436.7168  164.505  156.701  149.359  116.998  116.24  43.2017  42.7661  86.9631  86.9729
   436.9674  162.338  154.64  147.171  115.286  114.539  42.8013  42.3696  86.1571  86.1668
   437.2180  160.215  152.621  145.031  113.611  112.875  42.4064  41.9785  85.3623  85.3719
   437.4687  158.135  150.642  142.937  111.972  111.248  42.017  41.5928  84.5785  84.588
   437.7193  156.096  148.703  140.888  110.369  109.655  41.6329  41.2125  83.8054  83.8148
   437.9699  154.098  146.803  138.883  108.8  108.096  41.254  40.8373  83.0429  83.0521
   438.2206  152.139  144.94  136.921  107.265  106.571  40.8803  40.4673  82.2907  82.2999
   438.4712  150.218  143.113  134.999  105.762  105.077  40.5117  40.1022  81.5487  81.5578
   438.7218  148.335  141.322  133.118  104.29  103.615  40.148  39.7421  80.8167  80.8257
   438.9724  146.489  139.565  131.276  102.849  102.183  39.7892  39.3868  80.0946  80.1035
   439.2231  144.677  137.842  129.471  101.437  100.781  39.4352  39.0363  79.382  79.3908
   439.4737  142.9  136.152  127.704  100.055  99.4073  39.0859  38.6904  78.679  78.6877
   439.7243  141.157  134.494  125.973  98.7003  98.0617  38.7412  38.3491  77.9852  77.9939
   439.9749  139.447  132.867  124.276  97.3734  96.7434  38.4011  38.0123  77.3006  77.3092
   440.2256  137.768  131.27  122.614  96.0731  95.4516  38.0655  37.6799  76.625  76.6335
   440.4762  136.121  129.703  120.985  94.7988  94.1855  37.7342  37.3519  75.9582  75.9666
   440.7268  134.503  128.164  119.388  93.5499  92.9447  37.4072  37.0281  75.3001  75.3084
   440.9774  132.916  126.654  117.822  92.3255  91.7282  37.0845  36.7085  74.6505  74.6587
   441.2281  131.357  125.171  116.287  91.1252  90.5356  36.7659  36.3931  74.0093  74.0174
   441.4787  129.827  123.715  114.782  89.9482  89.3663  36.4514  36.0817  73.3763  73.3843
   441.7293  128.324  122.285  113.305  88.794  88.2196  36.141  35.7743  72.7514  72.7593
   441.9799  126.848  120.881  111.857  87.662  87.0949  35.8345  35.4708  72.1344  72.1423
   442.2306  125.398  119.501  110.437  86.5517  85.9917  35.5318  35.1712  71.5253  71.5331
   442.4812  123.973  118.146  109.044  85.4625  84.9095  35.233  34.8753  70.9239  70.9316
   442.7318  122.574  116.814  107.676  84.3938  83.8478  34.938  34.5832  70.33  70.3377
   442.9825  121.199  115.506  106.335  83.3452  82.8059  34.6466  34.2947  69.7435  69.7511
   443.2331  119.847  114.22  105.018  82.3162  81.7836  34.3589  34.0098  69.1644  69.1719
   443.4837  118.519  112.956  103.725  81.3063  80.7802  34.0748  33.7285  68.5925  68.5999
   443.7343  117.214  111.714  102.457  80.3151  79.7953  33.7941  33.4506  68.0276  68.035
   443.9850  115.931  110.493  101.211  79.342  78.8285  33.517  33.1762  67.4697  67.477
   444.2356  114.669  109.293  99.9878  78.3867  77.8793  33.2432  32.9051  66.9186  66.9258
   444.4862  113.429  108.113  98.7868  77.4488  76.9474  32.9727  32.6373  66.3742  66.3814
   444.7368  112.21  106.952  97.6073  76.5277  76.0323  32.7056  32.3728  65.8365  65.8436
   444.9875  111.01  105.811  96.4488  75.6233  75.1336  32.4417  32.1115  65.3053  65.3124
   445.2381  109.831  104.689  95.3108  74.735  74.251  32.181  31.8534  64.7805  64.7875
   445.4887  108.671  103.585  94.1929  73.8624  73.3841  31.9234  31.5983  64.262  64.2689
   445.7393  107.53  102.499  93.0945  73.0054  72.5325  31.6689  31.3464  63.7497  63.7566
   445.9900  106.408  101.431  92.0152  72.1634  71.6959  31.4174  31.0974  63.2435  63.2503
   446.2406  105.303  100.38  90.9545  71.3361  70.8739  31.1689  30.8514  62.7433  62.7501
   446.4912  104.217  99.3457  89.9122  70.5233  70.0663  30.9233  30.6082  62.2491  62.2557
   446.7419  103.148  98.3283  88.8876  69.7245  69.2726  30.6807  30.368  61.7606  61.7672
   446.9925  102.096  97.3271  87.8805  68.9396  68.4927  30.4409  30.1306  61.2779  61.2845
   447.2431  101.061  96.3418  86.8904  68.1682  67.7262  30.2039  29.8959  60.8008  60.8073
   447.4937  100.042  95.3721  85.9169  67.41  66.9727  29.9696  29.664  60.3293  60.3358
   447.7444  99.0393  94.4176  84.9598  66.6647  66.2322  29.7381  29.4348  59.8633  59.8697
   447.9950  98.0523  93.4781  84.0185  65.9321  65.5042  29.5092  29.2082  59.4026  59.409
   448.2456  97.0806  92.5533  83.0929  65.2118  64.7885  29.283  28.9842  58.9472  58.9535
   448.4962  96.1241  91.6428  82.1825  64.5038  64.0849  29.0594  28.7628  58.4971  58.5033
   448.7469  95.1824  90.7465  81.2869  63.8076  63.3931  28.8383  28.544  58.0521  58.0583
   448.9975  94.2553  89.864  80.406  63.1231  62.713  28.6198  28.3276  57.6122  57.6183
   449.2481  93.3424  88.995  79.5393  62.4501  62.0441  28.4037  28.1136  57.1772  57.1833
   449.4987  92.4435  88.1394  78.6866  61.7883  61.3864  28.19  27.9021  56.7472  56.7532
   449.7494  91.5584  87.2969  77.8475  61.1375  60.7397  27.9788  27.693  56.322  56.328
   450.0000  90.6868  86.4672  77.0219  60.4975  60.1037  27.7699  27.4862  55.9015  55.9075