File: examples/graphene/reference/60x60x1/raman_spectra1.dat
#Raman spectra
#Laser energy   2.33 eV
#Raman shift (cm-1), Raman Spectra (XX,YY,ZZ,s+s+,s-s-,XY,YX,s+s-,s-s+)
  1500  531.742  532.357  0.000166462  0.0416819  0.0416606  531.598  531.594  1063.59  1063.62
  1500.25  538.67  539.293  0.000168631  0.042225  0.0422034  538.524  538.52  1077.44  1077.48
  1500.5  545.734  546.365  0.000170842  0.0427787  0.0427568  545.586  545.582  1091.57  1091.61
  1500.75  552.937  553.577  0.000173097  0.0433434  0.0433212  552.788  552.784  1105.98  1106.02
  1501  560.284  560.932  0.000175397  0.0439193  0.0438968  560.133  560.129  1120.68  1120.72
  1501.25  567.779  568.435  0.000177744  0.0445068  0.044484  567.626  567.622  1135.67  1135.71
  1501.5  575.425  576.09  0.000180137  0.0451061  0.045083  575.27  575.265  1150.96  1151
  1501.75  583.226  583.9  0.000182579  0.0457176  0.0456942  583.069  583.065  1166.56  1166.6
  1502.01  591.186  591.87  0.000185071  0.0463416  0.0463179  591.028  591.023  1182.49  1182.53
  1502.26  599.311  600.004  0.000187615  0.0469785  0.0469545  599.151  599.146  1198.74  1198.78
  1502.51  607.604  608.307  0.000190211  0.0476286  0.0476043  607.442  607.437  1215.33  1215.37
  1502.76  616.071  616.783  0.000192862  0.0482923  0.0482676  615.906  615.901  1232.26  1232.3
  1503.01  624.716  625.438  0.000195568  0.0489699  0.0489449  624.549  624.544  1249.55  1249.6
  1503.26  633.543  634.276  0.000198331  0.0496619  0.0496365  633.374  633.369  1267.21  1267.25
  1503.51  642.559  643.302  0.000201154  0.0503686  0.0503429  642.388  642.383  1285.24  1285.29
  1503.76  651.769  652.523  0.000204037  0.0510906  0.0510644  651.596  651.59  1303.67  1303.71
  1504.01  661.178  661.942  0.000206983  0.0518281  0.0518016  661.002  660.997  1322.49  1322.53
  1504.26  670.792  671.568  0.000209992  0.0525817  0.0525549  670.614  670.609  1341.72  1341.76
  1504.51  680.617  681.404  0.000213068  0.0533519  0.0533246  680.437  680.431  1361.37  1361.41
  1504.76  690.659  691.458  0.000216212  0.0541391  0.0541114  690.477  690.471  1381.45  1381.5
  1505.01  700.926  701.736  0.000219426  0.0549439  0.0549158  700.74  700.735  1401.99  1402.04
  1505.26  711.422  712.245  0.000222712  0.0557667  0.0557381  711.235  711.229  1422.98  1423.03
  1505.51  722.156  722.991  0.000226072  0.0566081  0.0565791  721.966  721.96  1444.46  1444.51
  1505.76  733.135  733.982  0.000229509  0.0574687  0.0574393  732.942  732.936  1466.41  1466.47
  1506.02  744.365  745.226  0.000233025  0.058349  0.0583192  744.17  744.164  1488.88  1488.93
  1506.27  755.856  756.73  0.000236622  0.0592497  0.0592194  755.657  755.652  1511.86  1511.91
  1506.52  767.614  768.502  0.000240303  0.0601714  0.0601407  767.413  767.407  1535.38  1535.43
  1506.77  779.649  780.55  0.000244071  0.0611148  0.0610836  779.445  779.439  1559.45  1559.51
  1507.02  791.968  792.884  0.000247928  0.0620805  0.0620488  791.762  791.755  1584.1  1584.15
  1507.27  804.582  805.512  0.000251876  0.0630693  0.063037  804.372  804.366  1609.33  1609.38
  1507.52  817.499  818.445  0.00025592  0.0640818  0.0640491  817.286  817.28  1635.16  1635.22
  1507.77  830.73  831.69  0.000260062  0.065119  0.0650857  830.514  830.507  1661.63  1661.68
  1508.02  844.284  845.26  0.000264305  0.0661814  0.0661476  844.065  844.058  1688.74  1688.8
  1508.27  858.172  859.164  0.000268653  0.0672701  0.0672357  857.95  857.943  1716.52  1716.58
  1508.52  872.405  873.414  0.000273109  0.0683858  0.0683509  872.18  872.173  1744.99  1745.05
  1508.77  886.995  888.021  0.000277676  0.0695295  0.069494  886.766  886.759  1774.17  1774.23
  1509.02  901.954  902.997  0.000282359  0.0707021  0.070666  901.722  901.715  1804.09  1804.15
  1509.27  917.294  918.355  0.000287162  0.0719046  0.0718678  917.058  917.051  1834.78  1834.84
  1509.52  933.028  934.107  0.000292088  0.073138  0.0731006  932.789  932.782  1866.25  1866.31
  1509.77  949.17  950.268  0.000297141  0.0744033  0.0743653  948.927  948.92  1898.54  1898.6
  1510.03  965.735  966.852  0.000302327  0.0757018  0.0756631  965.488  965.48  1931.67  1931.73
  1510.28  982.736  983.872  0.000307649  0.0770345  0.0769951  982.485  982.478  1965.67  1965.74
  1510.53  1000.19  1001.35  0.000313113  0.0784027  0.0783626  999.935  999.927  2000.59  2000.66
  1510.78  1018.11  1019.29  0.000318724  0.0798076  0.0797668  1017.85  1017.85  2036.44  2036.51
  1511.03  1036.52  1037.72  0.000324487  0.0812505  0.081209  1036.26  1036.25  2073.26  2073.33
  1511.28  1055.43  1056.65  0.000330407  0.082733  0.0826906  1055.16  1055.16  2111.08  2111.15
  1511.53  1074.86  1076.11  0.000336491  0.0842563  0.0842132  1074.59  1074.58  2149.95  2150.03
  1511.78  1094.84  1096.1  0.000342744  0.085822  0.0857781  1094.56  1094.55  2189.9  2189.98
  1512.03  1115.37  1116.66  0.000349172  0.0874317  0.087387  1115.09  1115.08  2230.98  2231.06
  1512.28  1136.49  1137.8  0.000355783  0.0890871  0.0890415  1136.2  1136.2  2273.22  2273.3
  1512.53  1158.21  1159.55  0.000362584  0.0907899  0.0907434  1157.92  1157.91  2316.67  2316.75
  1512.78  1180.56  1181.93  0.000369581  0.0925419  0.0924945  1180.27  1180.26  2361.37  2361.46
  1513.03  1203.56  1204.96  0.000376782  0.094345  0.0942968  1203.27  1203.26  2407.39  2407.47
  1513.28  1227.25  1228.66  0.000384195  0.0962013  0.0961521  1226.94  1226.93  2454.75  2454.84
  1513.53  1251.63  1253.08  0.00039183  0.0981129  0.0980627  1251.32  1251.31  2503.53  2503.62
  1513.78  1276.75  1278.23  0.000399693  0.100082  0.100031  1276.43  1276.42  2553.77  2553.86
  1514.04  1302.63  1304.14  0.000407796  0.102111  0.102058  1302.31  1302.3  2605.54  2605.63
  1514.29  1329.31  1330.84  0.000416147  0.104202  0.104148  1328.98  1328.97  2658.9  2658.99
  1514.54  1356.81  1358.38  0.000424756  0.106358  0.106303  1356.47  1356.46  2713.91  2714
  1514.79  1385.17  1386.77  0.000433636  0.108581  0.108525  1384.83  1384.82  2770.64  2770.74
  1515.04  1414.43  1416.07  0.000442796  0.110875  0.110818  1414.09  1414.07  2829.17  2829.26
  1515.29  1444.63  1446.3  0.000452249  0.113242  0.113184  1444.27  1444.26  2889.57  2889.67
  1515.54  1475.8  1477.5  0.000462008  0.115685  0.115626  1475.44  1475.43  2951.92  2952.02
  1515.79  1507.99  1509.73  0.000472085  0.118208  0.118148  1507.62  1507.61  3016.3  3016.41
  1516.04  1541.24  1543.02  0.000482495  0.120815  0.120753  1540.87  1540.86  3082.82  3082.92
  1516.29  1575.6  1577.42  0.000493253  0.123509  0.123445  1575.22  1575.21  3151.55  3151.66
  1516.54  1611.12  1612.99  0.000504374  0.126293  0.126229  1610.74  1610.73  3222.61  3222.72
  1516.79  1647.86  1649.76  0.000515874  0.129173  0.129107  1647.47  1647.45  3296.09  3296.2
  1517.04  1685.86  1687.81  0.000527772  0.132152  0.132084  1685.46  1685.45  3372.1  3372.22
  1517.29  1725.19  1727.19  0.000540086  0.135235  0.135166  1724.79  1724.77  3450.78  3450.9
  1517.54  1765.92  1767.96  0.000552834  0.138427  0.138357  1765.5  1765.49  3532.23  3532.35
  1517.79  1808.09  1810.18  0.000566039  0.141734  0.141661  1807.67  1807.66  3616.6  3616.72
  1518.05  1851.8  1853.94  0.000579721  0.14516  0.145085  1851.36  1851.35  3704.02  3704.14
  1518.3  1897.1  1899.3  0.000593904  0.148711  0.148635  1896.66  1896.65  3794.64  3794.77
  1518.55  1944.09  1946.33  0.000608613  0.152394  0.152316  1943.63  1943.62  3888.62  3888.75
  1518.8  1992.83  1995.14  0.000623874  0.156215  0.156136  1992.37  1992.36  3986.12  3986.26
  1519.05  2043.43  2045.8  0.000639716  0.160182  0.1601  2042.96  2042.95  4087.34  4087.48
  1519.3  2095.98  2098.4  0.000656166  0.164301  0.164217  2095.5  2095.48  4192.45  4192.59
  1519.55  2150.57  2153.06  0.000673259  0.168581  0.168495  2150.09  2150.07  4301.65  4301.8
  1519.8  2207.33  2209.88  0.000691026  0.17303  0.172941  2206.83  2206.81  4415.17  4415.32
  1520.05  2266.35  2268.97  0.000709504  0.177656  0.177566  2265.84  2265.82  4533.23  4533.39
  1520.3  2327.76  2330.46  0.000728731  0.182471  0.182377  2327.24  2327.22  4656.08  4656.24
  1520.55  2391.7  2394.47  0.000748749  0.187483  0.187387  2391.17  2391.15  4783.98  4784.14
  1520.8  2458.31  2461.15  0.0007696  0.192704  0.192606  2457.76  2457.74  4917.2  4917.37
  1521.05  2527.72  2530.65  0.000791333  0.198146  0.198044  2527.17  2527.15  5056.06  5056.23
  1521.3  2600.11  2603.12  0.000813996  0.203821  0.203716  2599.54  2599.52  5200.86  5201.04
  1521.55  2675.65  2678.74  0.000837644  0.209742  0.209635  2675.07  2675.05  5351.95  5352.14
  1521.8  2754.52  2757.7  0.000862335  0.215924  0.215814  2753.92  2753.9  5509.71  5509.9
  1522.06  2836.91  2840.19  0.000888131  0.222383  0.222269  2836.3  2836.28  5674.52  5674.71
  1522.31  2923.04  2926.42  0.000915097  0.229135  0.229018  2922.42  2922.4  5846.81  5847.02
  1522.56  3013.15  3016.63  0.000943306  0.236199  0.236078  3012.51  3012.49  6027.05  6027.26
  1522.81  3107.47  3111.06  0.000972836  0.243593  0.243468  3106.82  3106.79  6215.72  6215.93
  1523.06  3206.27  3209.98  0.00100377  0.251338  0.25121  3205.6  3205.58  6413.36  6413.58
  1523.31  3309.85  3313.68  0.0010362  0.259458  0.259325  3309.16  3309.14  6620.54  6620.77
  1523.56  3418.5  3422.46  0.00107021  0.267975  0.267838  3417.8  3417.78  6837.88  6838.12
  1523.81  3532.58  3536.66  0.00110593  0.276918  0.276776  3531.86  3531.83  7066.07  7066.32
  1524.06  3652.44  3656.66  0.00114345  0.286314  0.286167  3651.7  3651.67  7305.82  7306.08
  1524.31  3778.47  3782.84  0.00118291  0.296194  0.296043  3777.72  3777.69  7557.94  7558.2
  1524.56  3911.12  3915.64  0.00122444  0.306593  0.306436  3910.35  3910.32  7823.27  7823.55
  1524.81  4050.85  4055.53  0.00126819  0.317546  0.317384  4050.05  4050.02  8102.76  8103.05
  1525.06  4198.16  4203.01  0.00131431  0.329094  0.328926  4197.34  4197.31  8397.44  8397.73
  1525.31  4353.61  4358.65  0.00136298  0.341281  0.341106  4352.78  4352.75  8708.4  8708.7
  1525.56  4517.82  4523.05  0.00141439  0.354154  0.353972  4516.97  4516.93  9036.87  9037.19
  1525.81  4691.45  4696.87  0.00146875  0.367765  0.367577  4690.57  4690.54  9384.18  9384.51
  1526.07  4875.23  4880.86  0.00152629  0.382172  0.381976  4874.33  4874.29  9751.8  9752.14
  1526.32  5069.96  5075.82  0.00158725  0.397437  0.397234  5069.03  5068.99  10141.3  10141.7
  1526.57  5276.52  5282.62  0.00165192  0.41363  0.413419  5275.57  5275.53  10554.5  10554.9
  1526.82  5495.89  5502.24  0.00172061  0.430827  0.430607  5494.92  5494.87  10993.3  10993.7
  1527.07  5729.14  5735.76  0.00179363  0.449113  0.448883  5728.14  5728.1  11459.9  11460.3
  1527.32  5977.45  5984.36  0.00187138  0.468579  0.468339  5976.43  5976.38  11956.6  11957.1
  1527.57  6242.15  6249.37  0.00195425  0.48933  0.48908  6241.11  6241.06  12486.1  12486.6
  1527.82  6524.7  6532.25  0.00204272  0.511481  0.511219  6523.63  6523.58  13051.3  13051.8
  1528.07  6826.73  6834.62  0.00213728  0.535158  0.534884  6825.63  6825.57  13655.5  13656
  1528.32  7150.05  7158.32  0.00223851  0.560504  0.560218  7148.92  7148.86  14302.3  14302.8
  1528.57  7496.69  7505.36  0.00234704  0.58768  0.587379  7495.54  7495.48  14995.7  14996.2
  1528.82  7868.94  7878.04  0.00246359  0.616862  0.616546  7867.75  7867.69  15740.3  15740.9
  1529.07  8269.35  8278.91  0.00258896  0.648252  0.647921  8268.14  8268.07  16541.3  16541.9
  1529.32  8700.8  8710.86  0.00272404  0.682077  0.681728  8699.57  8699.5  17404.4  17405
  1529.57  9166.57  9177.17  0.00286987  0.718591  0.718223  9165.3  9165.23  18336.1  18336.7
  1529.82  9670.33  9681.51  0.0030276  0.758084  0.757696  9669.04  9668.97  19343.8  19344.5
  1530.08  10216.3  10228.1  0.00319854  0.800885  0.800476  10215  10214.9  20436  20436.7
  1530.33  10809.2  10821.7  0.0033842  0.847371  0.846937  10807.9  10807.8  21622.1  21622.9
  1530.58  11454.6  11467.9  0.00358628  0.897968  0.897509  11453.3  11453.2  22913.2  22914
  1530.83  12158.8  12172.8  0.00380675  0.953171  0.952684  12157.4  12157.3  24321.8  24322.7
  1531.08  12928.9  12943.8  0.00404788  1.01355  1.01303  12927.5  12927.4  25862.4  25863.3
  1531.33  13773.4  13789.3  0.00431229  1.07975  1.0792  13772  13771.9  27551.7  27552.7
  1531.58  14701.9  14718.9  0.00460302  1.15255  1.15196  14700.5  14700.4  29409.1  29410.2
  1531.83  15725.7  15743.9  0.00492361  1.23282  1.23219  15724.4  15724.3  31457.4  31458.5
  1532.08  16858.2  16877.7  0.00527821  1.3216  1.32093  16856.9  16856.8  33722.9  33724.1
  1532.33  18114.9  18135.8  0.0056717  1.42012  1.4194  18113.6  18113.4  36236.8  36238.1
  1532.58  19514  19536.6  0.00610982  1.52982  1.52904  19512.8  19512.7  39035.9  39037.3
  1532.83  21077.6  21102  0.0065994  1.6524  1.65156  21076.5  21076.3  42163.7  42165.3
  1533.08  22831.5  22857.9  0.00714859  1.78991  1.789  22830.5  22830.3  45672.4  45674.1
  1533.33  24806.8  24835.5  0.00776715  1.94479  1.94379  24806  24805.8  49624.2  49626.1
  1533.58  27041.2  27072.5  0.00846683  2.11997  2.11889  27040.7  27040.5  54094.3  54096.3
  1533.83  29580.2  29614.4  0.00926187  2.31903  2.31785  29579.9  29579.7  59173.7  59175.9
  1534.09  32479  32516.6  0.0101696  2.54632  2.54502  32479.2  32478.9  64973.1  64975.5
  1534.34  35805.6  35847  0.0112114  2.80714  2.80571  35806.3  35806  71628.4  71631
  1534.59  39643.5  39689.3  0.0124132  3.10805  3.10646  39644.8  39644.5  79306.4  79309.4
  1534.84  44095.8  44146.7  0.0138074  3.45714  3.45537  44097.9  44097.6  88213.9  88217.2
  1535.09  49290.7  49347.7  0.0154343  3.86447  3.86249  49293.9  49293.5  98607.2  98610.9
  1535.34  55387.9  55451.9  0.0173437  4.34254  4.34031  55392.5  55392.1  110806  110810
  1535.59  62586.1  62658.4  0.019598  4.90695  4.90443  62592.5  62592  125207  125212
  1535.84  71132.4  71214.6  0.0222745  5.57707  5.57421  71141.1  71140.5  142306  142311
  1536.09  81331.2  81425.3  0.0254685  6.37677  6.3735  81342.8  81342.2  162711  162717
  1536.34  93551.4  93659.6  0.0292957  7.33497  7.33122  93566.6  93565.8  187161  187168
  1536.59  108225  108350  0.0338911  8.48554  8.4812  108244  108244  216519  216527
  1536.84  125825  125971  0.0394032  9.8656  9.86055  125850  125849  251732  251742
  1537.09  146803  146972  0.0459727  11.5104  11.5046  146832  146831  293702  293714
  1537.34  171439  171637  0.0536876  13.4421  13.4352  171473  171472  342990  343003
  1537.59  199564  199795  0.0624944  15.6471  15.6391  199600  199598  399255  399271
  1537.84  230115  230381  0.0720591  18.0421  18.0328  230146  230144  460366  460384
  1538.1  260607  260908  0.0816029  20.4319  20.4214  260622  260620  521349  521368
  1538.35  286899  287231  0.0898283  22.4918  22.4803  286884  286882  573915  573936
  1538.6  303887  304239  0.0951371  23.8217  23.8095  303828  303825  607855  607877
  1538.85  307442  307798  0.0962385  24.0982  24.0859  307333  307330  614917  614938
  1539.1  296612  296955  0.0928379  23.2473  23.2354  296462  296459  593211  593231
  1539.35  274201  274518  0.085815  21.4892  21.4782  274026  274024  548354  548371
  1539.6  245138  245422  0.0767141  19.2106  19.2007  244959  244957  490211  490226
  1539.85  214201  214449  0.0670297  16.7856  16.777  214032  214031  428334  428346
  1540.1  184690  184904  0.0577934  14.4727  14.4653  184539  184537  369315  369326
  1540.35  158296  158480  0.049534  12.4044  12.3981  158165  158164  316535  316545
  1540.6  135559  135716  0.0424192  10.6227  10.6173  135447  135446  271070  271078
  1540.85  116371  116505  0.036415  9.11911  9.11444  116276  116275  232701  232708
  1541.1  100337  100453  0.0313981  7.86273  7.85871  100257  100256  200640  200646
  1541.35  86983.6  87084.2  0.0272199  6.8164  6.81291  86915.8  86915.2  173940  173945
  1541.6  75854  75941.7  0.0237374  5.9443  5.94126  75796.4  75795.8  151686  151690
  1541.85  66547.6  66624.6  0.0208254  5.21507  5.2124  66498.5  66497.9  133077  133081
  1542.11  58729.4  58797.3  0.0183791  4.60244  4.60008  58687.2  58686.7  117444  117447
  1542.36  52125.5  52185.8  0.0163126  4.08495  4.08286  52089  52088.6  104239  104242
  1542.61  46514.9  46568.7  0.014557  3.6453  3.64343  46483.1  46482.8  93019.7  93022.5
  1542.86  41720  41768.3  0.0130566  3.26956  3.26789  41692.2  41691.9  83431.6  83434.2
  1543.11  37598.3  37641.8  0.0117668  2.94657  2.94507  37573.8  37573.5  75189.6  75191.9
  1543.36  34035.2  34074.5  0.0106518  2.66735  2.66599  34013.5  34013.2  68064.5  68066.6
  1543.61  30938.1  30973.9  0.00968261  2.42465  2.42341  30918.8  30918.6  61871.3  61873.2
  1543.86  28232.1  28264.8  0.00883581  2.2126  2.21146  28214.9  28214.6  56460.1  56461.9
  1544.11  25856.2  25886.1  0.00809228  2.0264  2.02537  25840.7  25840.5  51708.8  51710.5
  1544.36  23760.2  23787.7  0.00743636  1.86215  1.8612  23746.2  23746  47517.5  47519
  1544.61  21903.1  21928.4  0.00685519  1.71661  1.71574  21890.4  21890.3  43803.7  43805.1
  1544.86  20250.8  20274.2  0.00633808  1.58712  1.58631  20239.2  20239.1  40499.4  40500.7
  1545.11  18774.8  18796.5  0.00587617  1.47145  1.4707  18764.3  18764.1  37547.8  37549
  1545.36  17451.5  17471.6  0.00546203  1.36774  1.36704  17441.8  17441.7  34901.4  34902.5
  1545.61  16260.8  16279.6  0.00508941  1.27444  1.27378  16252  16251.9  32520.4  32521.4
  1545.86  15186  15203.6  0.00475304  1.1902  1.1896  15177.9  15177.8  30371  30371.9
  1546.12  14212.8  14229.2  0.00444844  1.11393  1.11336  14205.2  14205.1  28424.6  28425.5
  1546.37  13328.8  13344.2  0.0041718  1.04465  1.04412  13321.9  13321.8  26656.9  26657.7
  1546.62  12523.8  12538.2  0.00391984  0.98156  0.981057  12517.3  12517.2  25046.9  25047.7
  1546.87  11788.6  11802.2  0.00368975  0.923942  0.923469  11782.5  11782.5  23576.6  23577.3
  1547.12  11115.5  11128.4  0.00347909  0.871192  0.870746  11109.9  11109.8  22230.5  22231.3
  1547.37  10497.8  10510  0.00328578  0.822784  0.822363  10492.6  10492.5  20995.3  20996
  1547.62  9929.72  9941.2  0.00310797  0.778259  0.77786  9924.79  9924.71  19859.1  19859.8
  1547.87  9406.04  9416.91  0.00294407  0.737216  0.736839  9401.41  9401.34  18811.8  18812.4
  1548.12  8922.32  8932.64  0.00279268  0.699306  0.698948  8917.98  8917.91  17844.4  17845
  1548.37  8474.65  8484.45  0.00265257  0.664221  0.663881  8470.56  8470.5  16949.1  16949.7
  1548.62  8059.56  8068.88  0.00252265  0.631688  0.631365  8055.7  8055.64  16119  16119.5
  1548.87  7673.98  7682.86  0.00240197  0.601469  0.601161  7670.34  7670.28  15347.9  15348.4
  1549.12  7315.22  7323.68  0.00228968  0.573351  0.573058  7311.77  7311.72  14630.4  14630.9
  1549.37  6980.85  6988.92  0.00218503  0.547145  0.546865  6977.58  6977.53  13961.7  13962.1
  1549.62  6668.73  6676.44  0.00208734  0.522683  0.522415  6665.63  6665.58  13337.5  13337.9
  1549.87  6376.94  6384.32  0.00199602  0.499814  0.499558  6374  6373.95  12753.9  12754.3
  1550.13  6103.77  6110.83  0.00191052  0.478404  0.478159  6100.98  6100.93  12207.6  12208
  1550.38  5847.68  5854.44  0.00183036  0.458333  0.458098  5845.02  5844.97  11695.4  11695.8
  1550.63  5607.27  5613.76  0.00175512  0.439491  0.439266  5604.74  5604.7  11214.6  11215
  1550.88  5381.31  5387.53  0.00168439  0.421781  0.421565  5378.89  5378.85  10762.7  10763
  1551.13  5168.66  5174.64  0.00161784  0.405114  0.404907  5166.35  5166.31  10337.4  10337.7
  1551.38  4968.3  4974.05  0.00155513  0.389411  0.389212  4966.1  4966.06  9936.7  9937.03
  1551.63  4779.32  4784.84  0.00149597  0.374599  0.374407  4777.21  4777.17  9558.74  9559.05
  1551.88  4600.86  4606.18  0.00144012  0.360612  0.360428  4598.84  4598.8  9201.83  9202.13
  1552.13  4432.17  4437.29  0.00138732  0.347391  0.347213  4430.23  4430.2  8864.45  8864.74
  1552.38  4272.54  4277.48  0.00133735  0.33488  0.334708  4270.69  4270.65  8545.21  8545.49
  1552.63  4121.35  4126.12  0.00129003  0.32303  0.322865  4119.57  4119.54  8242.83  8243.1
  1552.88  3978.01  3982.61  0.00124517  0.311795  0.311636  3976.3  3976.27  7956.15  7956.42
  1553.13  3841.99  3846.43  0.00120259  0.301134  0.30098  3840.35  3840.32  7684.12  7684.37
  1553.38  3712.8  3717.1  0.00116216  0.291009  0.29086  3711.22  3711.19  7425.74  7425.99
  1553.63  3590  3594.15  0.00112372  0.281384  0.28124  3588.47  3588.45  7180.13  7180.37
  1553.88  3473.16  3477.18  0.00108715  0.272227  0.272087  3471.7  3471.67  6946.47  6946.7
  1554.14  3361.92  3365.81  0.00105233  0.263508  0.263373  3360.51  3360.48  6723.98  6724.21
  1554.39  3255.92  3259.69  0.00101915  0.2552  0.255069  3254.56  3254.53  6511.98  6512.2
  1554.64  3154.84  3158.49  0.000987513  0.247277  0.247151  3153.52  3153.5  6309.82  6310.03
  1554.89  3058.38  3061.91  0.00095732  0.239717  0.239594  3057.1  3057.08  6116.9  6117.1
  1555.14  2966.26  2969.69  0.000928487  0.232497  0.232378  2965.03  2965.01  5932.66  5932.86
  1555.39  2878.23  2881.55  0.000900932  0.225597  0.225481  2877.04  2877.02  5756.6  5756.79
  1555.64  2794.05  2797.28  0.000874583  0.218999  0.218887  2792.9  2792.87  5588.23  5588.42
  1555.89  2713.49  2716.63  0.00084937  0.212685  0.212577  2712.38  2712.36  5427.13  5427.31
  1556.14  2636.37  2639.41  0.000825228  0.20664  0.206534  2635.29  2635.27  5272.87  5273.05
  1556.39  2562.47  2565.43  0.000802099  0.200848  0.200746  2561.43  2561.41  5125.08  5125.25
  1556.64  2491.63  2494.51  0.000779926  0.195296  0.195196  2490.62  2490.6  4983.4  4983.57
  1556.89  2423.68  2426.49  0.000758657  0.18997  0.189873  2422.7  2422.68  4847.51  4847.67
  1557.14  2358.47  2361.2  0.000738245  0.184859  0.184764  2357.52  2357.5  4717.08  4717.23
  1557.39  2295.84  2298.5  0.000718643  0.179951  0.179859  2294.92  2294.9  4591.83  4591.98
  1557.64  2235.68  2238.26  0.00069981  0.175235  0.175145  2234.78  2234.76  4471.49  4471.64
  1557.89  2177.84  2180.36  0.000681706  0.170701  0.170614  2176.97  2176.95  4355.81  4355.96
  1558.15  2122.21  2124.66  0.000664294  0.166341  0.166256  2121.36  2121.35  4244.56  4244.7
  1558.4  2068.68  2071.07  0.000647539  0.162146  0.162063  2067.86  2067.84  4137.5  4137.64
  1558.65  2017.15  2019.48  0.000631409  0.158107  0.158026  2016.35  2016.33  4034.43  4034.57
  1558.9  1967.52  1969.79  0.000615873  0.154216  0.154138  1966.74  1966.72  3935.16  3935.29
  1559.15  1919.69  1921.91  0.000600902  0.150468  0.150391  1918.93  1918.91  3839.5  3839.63
  1559.4  1873.58  1875.74  0.000586469  0.146854  0.146779  1872.84  1872.82  3747.28  3747.41
  1559.65  1829.11  1831.22  0.000572549  0.143368  0.143295  1828.39  1828.37  3658.34  3658.46
  1559.9  1786.2  1788.26  0.000559118  0.140005  0.139933  1785.5  1785.48  3572.52  3572.64
  1560.15  1744.78  1746.8  0.000546153  0.136758  0.136688  1744.1  1744.08  3489.68  3489.8
  1560.4  1704.78  1706.75  0.000533633  0.133623  0.133555  1704.11  1704.1  3409.68  3409.8
  1560.65  1666.14  1668.07  0.000521538  0.130595  0.130528  1665.49  1665.48  3332.4  3332.51
  1560.9  1628.8  1630.68  0.000509849  0.127668  0.127602  1628.16  1628.15  3257.71  3257.82
  1561.15  1592.69  1594.53  0.000498548  0.124838  0.124774  1592.07  1592.06  3185.5  3185.61
  1561.4  1557.77  1559.57  0.000487618  0.122101  0.122038  1557.17  1557.16  3115.66  3115.77
  1561.65  1523.99  1525.75  0.000477043  0.119453  0.119392  1523.4  1523.39  3048.09  3048.19
  1561.9  1491.29  1493.01  0.000466807  0.11689  0.11683  1490.71  1490.7  2982.69  2982.79
  1562.16  1459.63  1461.32  0.000456897  0.114408  0.11435  1459.07  1459.05  2919.37  2919.47
  1562.41  1428.96  1430.62  0.000447299  0.112005  0.111948  1428.41  1428.4  2858.04  2858.13
  1562.66  1399.25  1400.87  0.000438  0.109676  0.10962  1398.72  1398.71  2798.62  2798.71
  1562.91  1370.46  1372.05  0.000428987  0.107419  0.107365  1369.94  1369.93  2741.03  2741.12
  1563.16  1342.55  1344.1  0.000420249  0.105231  0.105178  1342.03  1342.02  2685.2  2685.29
  1563.41  1315.47  1316.99  0.000411775  0.10311  0.103057  1314.97  1314.96  2631.05  2631.14
  1563.66  1289.21  1290.7  0.000403555  0.101051  0.100999  1288.72  1288.71  2578.53  2578.62
  1563.91  1263.73  1265.19  0.000395577  0.0990536  0.099003  1263.25  1263.24  2527.56  2527.64
  1564.16  1238.99  1240.42  0.000387834  0.0971147  0.097065  1238.52  1238.51  2478.08  2478.16
  1564.41  1214.97  1216.38  0.000380316  0.0952321  0.0951834  1214.51  1214.5  2430.04  2430.12
  1564.66  1191.64  1193.02  0.000373014  0.0934036  0.0933558  1191.19  1191.18  2383.38  2383.46
  1564.91  1168.98  1170.33  0.000365919  0.0916272  0.0915803  1168.54  1168.53  2338.06  2338.13
  1565.16  1146.95  1148.28  0.000359026  0.0899009  0.089855  1146.52  1146.51  2294.01  2294.08
  1565.41  1125.55  1126.85  0.000352324  0.088223  0.0881778  1125.12  1125.11  2251.19  2251.27
  1565.66  1104.73  1106.01  0.000345809  0.0865915  0.0865472  1104.32  1104.31  2209.56  2209.63
  1565.91  1084.49  1085.74  0.000339472  0.0850048  0.0849613  1084.08  1084.07  2169.07  2169.14
  1566.17  1064.79  1066.03  0.000333308  0.0834612  0.0834185  1064.4  1064.39  2129.68  2129.75
  1566.42  1045.63  1046.84  0.00032731  0.0819593  0.0819174  1045.24  1045.23  2091.36  2091.43
  1566.67  1026.98  1028.17  0.000321472  0.0804975  0.0804564  1026.6  1026.59  2054.06  2054.13
  1566.92  1008.83  1009.99  0.000315789  0.0790745  0.079034  1008.45  1008.44  2017.75  2017.81
  1567.17  991.148  992.295  0.000310255  0.0776888  0.077649  990.78  990.772  1982.39  1982.45
  1567.42  973.93  975.056  0.000304866  0.0763391  0.0763001  973.568  973.56  1947.95  1948.01
  1567.67  957.155  958.262  0.000299615  0.0750243  0.074986  956.8  956.792  1914.4  1914.46
  1567.92  940.81  941.898  0.000294499  0.0737432  0.0737055  940.461  940.454  1881.71  1881.77
  1568.17  924.879  925.949  0.000289512  0.0724945  0.0724575  924.537  924.53  1849.84  1849.91
  1568.42  909.35  910.401  0.000284651  0.0712773  0.0712409  909.014  909.006  1818.78  1818.84
  1568.67  894.207  895.242  0.000279911  0.0700904  0.0700546  893.877  893.87  1788.5  1788.56
  1568.92  879.44  880.457  0.000275289  0.068933  0.0688977  879.116  879.109  1758.96  1759.02
  1569.17  865.035  866.035  0.00027078  0.0678039  0.0677692  864.717  864.71  1730.15  1730.21
  1569.42  850.981  851.965  0.00026638  0.0667023  0.0666682  850.668  850.661  1702.04  1702.1
  1569.67  837.266  838.234  0.000262087  0.0656273  0.0655938  836.959  836.952  1674.61  1674.67
  1569.92  823.88  824.833  0.000257897  0.0645781  0.0645451  823.578  823.571  1647.84  1647.89
  1570.18  810.812  811.75  0.000253807  0.0635538  0.0635213  810.515  810.508  1621.7  1621.76
  1570.43  798.052  798.975  0.000249812  0.0625537  0.0625217  797.76  797.754  1596.18  1596.23
  1570.68  785.591  786.499  0.000245912  0.0615769  0.0615455  785.304  785.298  1571.26  1571.31
  1570.93  773.419  774.313  0.000242102  0.0606229  0.0605919  773.137  773.131  1546.91  1546.97
  1571.18  761.528  762.408  0.00023838  0.0596908  0.0596603  761.25  761.244  1523.13  1523.18
  1571.43  749.908  750.776  0.000234742  0.0587801  0.05875  749.635  749.629  1499.89  1499.94
  1571.68  738.553  739.407  0.000231188  0.05789  0.0578604  738.284  738.278  1477.18  1477.23
  1571.93  727.453  728.294  0.000227713  0.05702  0.0569908  727.188  727.183  1454.98  1455.03
  1572.18  716.601  717.43  0.000224317  0.0561694  0.0561407  716.341  716.335  1433.27  1433.32
  1572.43  705.99  706.807  0.000220995  0.0553377  0.0553094  705.734  705.728  1412.05  1412.1
  1572.68  695.613  696.417  0.000217747  0.0545243  0.0544965  695.361  695.355  1391.3  1391.34
  1572.93  685.463  686.255  0.00021457  0.0537288  0.0537013  685.215  685.209  1370.99  1371.04
  1573.18  675.533  676.314  0.000211461  0.0529505  0.0529234  675.289  675.283  1351.13  1351.18
  1573.43  665.817  666.587  0.00020842  0.0521889  0.0521622  665.577  665.571  1331.7  1331.75
  1573.68  656.31  657.069  0.000205444  0.0514437  0.0514174  656.073  656.067  1312.69  1312.73
  1573.93  647.004  647.752  0.000202531  0.0507143  0.0506884  646.77  646.765  1294.07  1294.12
  1574.19  637.895  638.632  0.00019968  0.0500003  0.0499747  637.665  637.66  1275.85  1275.9
  1574.44  628.976  629.704  0.000196888  0.0493012  0.049276  628.75  628.745  1258.02  1258.06
  1574.69  620.243  620.961  0.000194154  0.0486168  0.0485919  620.02  620.015  1240.55  1240.59
  1574.94  611.691  612.398  0.000191477  0.0479464  0.0479219  611.471  611.466  1223.44  1223.49
  1575.19  603.314  604.012  0.000188855  0.0472898  0.0472657  603.098  603.093  1206.69  1206.73
  1575.44  595.108  595.797  0.000186287  0.0466466  0.0466228  594.895  594.89  1190.28  1190.32
  1575.69  587.069  587.748  0.00018377  0.0460165  0.0459929  586.858  586.854  1174.2  1174.24
  1575.94  579.191  579.86  0.000181304  0.045399  0.0453758  578.983  578.979  1158.44  1158.48
  1576.19  571.47  572.131  0.000178887  0.0447938  0.0447709  571.265  571.261  1143  1143.04
  1576.44  563.903  564.555  0.000176518  0.0442007  0.0441781  563.701  563.697  1127.86  1127.9
  1576.69  556.485  557.128  0.000174196  0.0436192  0.0435969  556.286  556.281  1113.03  1113.06
  1576.94  549.212  549.847  0.00017192  0.0430492  0.0430272  549.016  549.011  1098.48  1098.52
  1577.19  542.081  542.707  0.000169688  0.0424902  0.0424685  541.887  541.883  1084.22  1084.25
  1577.44  535.087  535.706  0.000167498  0.0419421  0.0419206  534.896  534.892  1070.23  1070.27
  1577.69  528.228  528.839  0.000165351  0.0414044  0.0413833  528.04  528.036  1056.51  1056.55
  1577.94  521.5  522.103  0.000163245  0.0408771  0.0408562  521.315  521.311  1043.06  1043.09
  1578.2  514.9  515.495  0.000161179  0.0403598  0.0403391  514.717  514.713  1029.85  1029.89
  1578.45  508.424  509.012  0.000159152  0.0398522  0.0398318  508.243  508.239  1016.9  1016.94
  1578.7  502.07  502.65  0.000157163  0.0393541  0.039334  501.891  501.887  1004.19  1004.23
  1578.95  495.833  496.407  0.000155211  0.0388653  0.0388454  495.657  495.654  991.72  991.754
  1579.2  489.713  490.279  0.000153295  0.0383855  0.0383659  489.539  489.535  979.478  979.511
  1579.45  483.704  484.264  0.000151414  0.0379146  0.0378952  483.533  483.529  967.461  967.494
  1579.7  477.806  478.359  0.000149568  0.0374523  0.0374331  477.637  477.633  955.664  955.696
  1579.95  472.015  472.561  0.000147755  0.0369983  0.0369794  471.848  471.844  944.081  944.113
  1580.2  466.328  466.868  0.000145975  0.0365526  0.0365339  466.163  466.16  932.707  932.739
  1580.45  460.744  461.277  0.000144227  0.0361149  0.0360964  460.581  460.577  921.538  921.569
  1580.7  455.259  455.786  0.00014251  0.035685  0.0356667  455.098  455.095  910.568  910.599
  1580.95  449.872  450.392  0.000140824  0.0352627  0.0352447  449.713  449.709  899.792  899.823
  1581.2  444.579  445.093  0.000139167  0.0348479  0.03483  444.422  444.419  889.207  889.237
  1581.45  439.379  439.888  0.00013754  0.0344403  0.0344227  439.225  439.221  878.807  878.837
  1581.7  434.27  434.773  0.00013594  0.0340398  0.0340224  434.117  434.114  868.589  868.618
  1581.95  429.25  429.746  0.000134369  0.0336463  0.0336291  429.099  429.096  858.547  858.576
  1582.21  424.316  424.807  0.000132824  0.0332596  0.0332426  424.167  424.163  848.679  848.708
  1582.46  419.467  419.952  0.000131306  0.0328795  0.0328627  419.319  419.316  838.98  839.008
  1582.71  414.7  415.179  0.000129814  0.0325058  0.0324892  414.554  414.551  829.446  829.474
  1582.96  410.014  410.488  0.000128347  0.0321385  0.0321221  409.87  409.867  820.073  820.101
  1583.21  405.407  405.876  0.000126905  0.0317774  0.0317612  405.264  405.261  810.859  810.886
  1583.46  400.877  401.34  0.000125487  0.0314224  0.0314063  400.736  400.733  801.798  801.825
  1583.71  396.422  396.881  0.000124093  0.0310732  0.0310573  396.283  396.28  792.889  792.916
  1583.96  392.042  392.495  0.000122722  0.0307299  0.0307142  391.904  391.901  784.127  784.154
  1584.21  387.733  388.182  0.000121373  0.0303922  0.0303766  387.598  387.595  775.51  775.536
  1584.46  383.496  383.939  0.000120046  0.03006  0.0300446  383.361  383.358  767.034  767.06
  1584.71  379.327  379.765  0.000118741  0.0297332  0.029718  379.194  379.191  758.696  758.722
  1584.96  375.226  375.659  0.000117458  0.0294118  0.0293967  375.094  375.092  750.493  750.519
  1585.21  371.191  371.62  0.000116195  0.0290955  0.0290806  371.061  371.058  742.423  742.448
  1585.46  367.22  367.645  0.000114952  0.0287843  0.0287696  367.092  367.089  734.482  734.507
  1585.71  363.313  363.733  0.000113729  0.028478  0.0284635  363.186  363.184  726.668  726.692
  1585.96  359.468  359.884  0.000112525  0.0281767  0.0281623  359.343  359.34  718.977  719.001
  1586.22  355.684  356.095  0.000111341  0.02788  0.0278658  355.56  355.557  711.408  711.432
  1586.47  351.959  352.366  0.000110175  0.0275881  0.027574  351.836  351.834  703.958  703.982
  1586.72  348.292  348.695  0.000109027  0.0273007  0.0272867  348.171  348.168  696.624  696.648
  1586.97  344.683  345.081  0.000107897  0.0270177  0.0270039  344.563  344.56  689.404  689.428
  1587.22  341.129  341.523  0.000106784  0.0267392  0.0267255  341.01  341.007  682.296  682.319
  1587.47  337.629  338.02  0.000105689  0.0264649  0.0264514  337.512  337.509  675.297  675.32
  1587.72  334.184  334.57  0.00010461  0.0261948  0.0261814  334.068  334.065  668.406  668.428
  1587.97  330.79  331.173  0.000103548  0.0259288  0.0259156  330.676  330.673  661.619  661.641
  1588.22  327.449  327.827  0.000102502  0.0256669  0.0256538  327.335  327.332  654.935  654.957
  1588.47  324.157  324.532  0.000101472  0.0254089  0.0253959  324.045  324.042  648.352  648.374
  1588.72  320.915  321.286  0.000100457  0.0251548  0.0251419  320.804  320.801  641.867  641.889
  1588.97  317.721  318.089  9.94572e-05  0.0249044  0.0248917  317.611  317.609  635.479  635.501
  1589.22  314.575  314.939  9.84724e-05  0.0246578  0.0246452  314.466  314.464  629.186  629.208
  1589.47  311.475  311.835  9.7502e-05  0.0244148  0.0244024  311.367  311.365  622.987  623.008
  1589.72  308.421  308.778  9.6546e-05  0.0241754  0.0241631  308.314  308.312  616.878  616.899
  1589.97  305.411  305.765  9.56039e-05  0.0239396  0.0239273  305.306  305.303  610.858  610.879
  1590.23  302.446  302.795  9.46755e-05  0.0237071  0.023695  302.341  302.339  604.927  604.947
  1590.48  299.523  299.869  9.37606e-05  0.023478  0.023466  299.419  299.417  599.081  599.101
  1590.73  296.642  296.985  9.28589e-05  0.0232522  0.0232403  296.54  296.538  593.319  593.339
  1590.98  293.803  294.143  9.19702e-05  0.0230297  0.0230179  293.702  293.699  587.641  587.66
  1591.23  291.004  291.341  9.10941e-05  0.0228103  0.0227986  290.904  290.902  582.043  582.063
  1591.48  288.246  288.579  9.02305e-05  0.022594  0.0225825  288.146  288.144  576.525  576.544
  1591.73  285.526  285.856  8.93791e-05  0.0223809  0.0223694  285.427  285.425  571.085  571.104
  1591.98  282.844  283.171  8.85397e-05  0.0221707  0.0221593  282.747  282.744  565.721  565.74
  1592.23  280.2  280.524  8.7712e-05  0.0219634  0.0219522  280.104  280.101  560.433  560.452
  1592.48  277.593  277.914  8.68959e-05  0.0217591  0.021748  277.497  277.495  555.219  555.237
  1592.73  275.022  275.34  8.60912e-05  0.0215576  0.0215466  274.927  274.925  550.077  550.095
  1592.98  272.487  272.802  8.52975e-05  0.0213588  0.0213479  272.393  272.391  545.006  545.024
  1593.23  269.986  270.299  8.45148e-05  0.0211628  0.021152  269.893  269.891  540.005  540.023
  1593.48  267.52  267.829  8.37428e-05  0.0209695  0.0209588  267.428  267.426  535.072  535.09
  1593.73  265.088  265.394  8.29814e-05  0.0207789  0.0207682  264.996  264.994  530.206  530.224
  1593.98  262.688  262.992  8.22302e-05  0.0205908  0.0205803  262.598  262.596  525.407  525.425
  1594.24  260.321  260.622  8.14892e-05  0.0204052  0.0203948  260.231  260.229  520.673  520.69
  1594.49  257.986  258.284  8.07582e-05  0.0202222  0.0202119  257.897  257.895  516.002  516.019
  1594.74  255.682  255.977  8.0037e-05  0.0200416  0.0200314  255.594  255.592  511.393  511.411
  1594.99  253.408  253.701  7.93254e-05  0.0198634  0.0198533  253.321  253.319  506.847  506.864
  1595.24  251.165  251.456  7.86232e-05  0.0196876  0.0196775  251.079  251.077  502.36  502.377
  1595.49  248.952  249.24  7.79304e-05  0.0195141  0.0195041  248.866  248.864  497.933  497.95
  1595.74  246.767  247.053  7.72466e-05  0.0193429  0.019333  246.683  246.681  493.564  493.581
  1595.99  244.612  244.894  7.65718e-05  0.0191739  0.0191641  244.528  244.526  489.252  489.269
  1596.24  242.484  242.764  7.59058e-05  0.0190071  0.0189974  242.401  242.399  484.997  485.013
  1596.49  240.384  240.662  7.52484e-05  0.0188425  0.0188329  240.302  240.3  480.797  480.813
  1596.74  238.311  238.587  7.45996e-05  0.01868  0.0186705  238.23  238.228  476.651  476.667
  1596.99  236.265  236.538  7.39591e-05  0.0185197  0.0185102  236.184  236.182  472.558  472.574
  1597.24  234.245  234.516  7.33268e-05  0.0183613  0.018352  234.165  234.163  468.518  468.534
  1597.49  232.251  232.52  7.27025e-05  0.018205  0.0181957  232.172  232.17  464.53  464.546
  1597.74  230.282  230.548  7.20863e-05  0.0180507  0.0180415  230.203  230.202  460.592  460.608
  1597.99  228.338  228.602  7.14778e-05  0.0178983  0.0178892  228.26  228.259  456.704  456.72
  1598.25  226.419  226.681  7.0877e-05  0.0177479  0.0177388  226.342  226.34  452.865  452.881
  1598.5  224.524  224.783  7.02837e-05  0.0175993  0.0175904  224.447  224.445  449.075  449.09
  1598.75  222.652  222.91  6.96978e-05  0.0174526  0.0174437  222.576  222.574  445.331  445.346
  1599  220.804  221.059  6.91193e-05  0.0173078  0.0172989  220.729  220.727  441.635  441.649
  1599.25  218.979  219.232  6.85479e-05  0.0171647  0.0171559  218.904  218.902  437.984  437.998
  1599.5  217.176  217.427  6.79836e-05  0.0170234  0.0170147  217.102  217.1  434.378  434.392
  1599.75  215.395  215.644  6.74262e-05  0.0168838  0.0168752  215.322  215.32  430.816  430.831
  1600  213.636  213.883  6.68756e-05  0.016746  0.0167374  213.563  213.562  427.298  427.313