File: examples/graphene/reference/72x72x1/raman_spectra1.dat
#Raman spectra
#Laser energy   2.33 eV
#Raman shift (cm-1), Raman Spectra (XX,YY,ZZ,s+s+,s-s-,XY,YX,s+s-,s-s+)
  1500  640.571  639.525  0.000107617  0.0281666  0.0281804  640.62  640.622  1280.62  1280.66
  1500.25  648.8  647.741  0.000109  0.0285284  0.0285424  648.85  648.851  1297.07  1297.11
  1500.5  657.188  656.115  0.000110409  0.0288973  0.0289114  657.239  657.241  1313.84  1313.88
  1500.75  665.74  664.653  0.000111846  0.0292733  0.0292876  665.791  665.793  1330.94  1330.98
  1501  674.46  673.359  0.000113311  0.0296567  0.0296711  674.512  674.514  1348.37  1348.41
  1501.25  683.352  682.236  0.000114805  0.0300476  0.0300623  683.405  683.407  1366.15  1366.19
  1501.5  692.421  691.291  0.000116328  0.0304464  0.0304613  692.475  692.477  1384.28  1384.32
  1501.75  701.672  700.526  0.000117882  0.0308531  0.0308682  701.726  701.729  1402.77  1402.82
  1502.01  711.109  709.948  0.000119468  0.0312681  0.0312833  711.165  711.167  1421.64  1421.68
  1502.26  720.738  719.561  0.000121085  0.0316914  0.0317069  720.794  720.796  1440.89  1440.93
  1502.51  730.563  729.37  0.000122736  0.0321235  0.0321391  730.621  730.623  1460.53  1460.58
  1502.76  740.591  739.382  0.000124421  0.0325644  0.0325802  740.649  740.652  1480.58  1480.63
  1503.01  750.826  749.6  0.00012614  0.0330144  0.0330305  750.886  750.888  1501.04  1501.09
  1503.26  761.275  760.032  0.000127896  0.0334738  0.0334902  761.336  761.338  1521.93  1521.98
  1503.51  771.944  770.683  0.000129688  0.0339429  0.0339595  772.005  772.008  1543.26  1543.31
  1503.76  782.838  781.559  0.000131518  0.0344219  0.0344387  782.901  782.903  1565.04  1565.09
  1504.01  793.964  792.668  0.000133387  0.0349111  0.0349281  794.028  794.03  1587.29  1587.33
  1504.26  805.329  804.014  0.000135297  0.0354108  0.0354281  805.394  805.397  1610.01  1610.06
  1504.51  816.939  815.605  0.000137247  0.0359213  0.0359388  817.006  817.008  1633.22  1633.27
  1504.76  828.803  827.449  0.00013924  0.0364429  0.0364607  828.87  828.873  1656.94  1656.99
  1505.01  840.926  839.553  0.000141277  0.036976  0.036994  840.995  840.998  1681.17  1681.22
  1505.26  853.317  851.924  0.000143359  0.0375208  0.0375391  853.387  853.39  1705.95  1706
  1505.51  865.984  864.57  0.000145487  0.0380778  0.0380963  866.056  866.058  1731.27  1731.32
  1505.76  878.935  877.5  0.000147663  0.0386472  0.038666  879.008  879.01  1757.16  1757.21
  1506.02  892.178  890.721  0.000149887  0.0392295  0.0392486  892.252  892.255  1783.64  1783.69
  1506.27  905.722  904.244  0.000152163  0.039825  0.0398444  905.798  905.801  1810.72  1810.77
  1506.52  919.578  918.076  0.000154491  0.0404342  0.0404539  919.655  919.658  1838.42  1838.47
  1506.77  933.753  932.228  0.000156872  0.0410575  0.0410775  933.832  933.835  1866.75  1866.81
  1507.02  948.258  946.71  0.000159309  0.0416953  0.0417156  948.339  948.341  1895.75  1895.81
  1507.27  963.104  961.531  0.000161803  0.042348  0.0423687  963.186  963.189  1925.43  1925.49
  1507.52  978.3  976.703  0.000164356  0.0430162  0.0430372  978.384  978.387  1955.82  1955.87
  1507.77  993.859  992.236  0.00016697  0.0437003  0.0437216  993.945  993.948  1986.92  1986.98
  1508.02  1009.79  1008.14  0.000169647  0.0444008  0.0444225  1009.88  1009.88  2018.77  2018.83
  1508.27  1026.11  1024.43  0.000172388  0.0451184  0.0451404  1026.2  1026.2  2051.4  2051.46
  1508.52  1042.83  1041.12  0.000175197  0.0458534  0.0458758  1042.92  1042.92  2084.82  2084.88
  1508.77  1059.96  1058.22  0.000178074  0.0466065  0.0466292  1060.05  1060.05  2119.06  2119.13
  1509.02  1077.51  1075.75  0.000181023  0.0473783  0.0474014  1077.6  1077.61  2154.16  2154.22
  1509.27  1095.5  1093.71  0.000184046  0.0481695  0.0481929  1095.6  1095.6  2190.13  2190.19
  1509.52  1113.95  1112.13  0.000187145  0.0489806  0.0490044  1114.05  1114.05  2227.01  2227.07
  1509.77  1132.87  1131.02  0.000190323  0.0498123  0.0498366  1132.97  1132.97  2264.83  2264.89
  1510.03  1152.27  1150.39  0.000193583  0.0506654  0.0506901  1152.37  1152.37  2303.61  2303.68
  1510.28  1172.17  1170.26  0.000196927  0.0515405  0.0515657  1172.28  1172.28  2343.41  2343.48
  1510.53  1192.59  1190.65  0.000200358  0.0524385  0.0524641  1192.7  1192.71  2384.24  2384.31
  1510.78  1213.56  1211.57  0.000203879  0.0533602  0.0533862  1213.67  1213.67  2426.14  2426.22
  1511.03  1235.07  1233.06  0.000207495  0.0543064  0.0543328  1235.19  1235.19  2469.17  2469.24
  1511.28  1257.17  1255.12  0.000211207  0.0552779  0.0553048  1257.29  1257.29  2513.34  2513.41
  1511.53  1279.86  1277.77  0.000215019  0.0562757  0.0563031  1279.98  1279.99  2558.71  2558.78
  1511.78  1303.17  1301.05  0.000218936  0.0573007  0.0573286  1303.3  1303.3  2605.31  2605.39
  1512.03  1327.13  1324.96  0.00022296  0.0583539  0.0583824  1327.25  1327.26  2653.2  2653.28
  1512.28  1351.75  1349.54  0.000227096  0.0594365  0.0594654  1351.88  1351.88  2702.42  2702.51
  1512.53  1377.06  1374.81  0.000231348  0.0605493  0.0605789  1377.19  1377.19  2753.03  2753.11
  1512.78  1403.09  1400.8  0.000235721  0.0616938  0.0617238  1403.22  1403.23  2805.06  2805.14
  1513.03  1429.86  1427.52  0.000240219  0.0628709  0.0629015  1430  1430  2858.58  2858.67
  1513.28  1457.4  1455.02  0.000244846  0.064082  0.0641132  1457.54  1457.55  2913.65  2913.74
  1513.53  1485.75  1483.32  0.000249609  0.0653283  0.0653602  1485.89  1485.9  2970.32  2970.41
  1513.78  1514.93  1512.45  0.000254511  0.0666114  0.0666439  1515.08  1515.08  3028.66  3028.75
  1514.04  1544.98  1542.45  0.000259559  0.0679326  0.0679657  1545.13  1545.13  3088.73  3088.82
  1514.29  1575.92  1573.35  0.000264759  0.0692934  0.0693272  1576.08  1576.09  3150.61  3150.7
  1514.54  1607.81  1605.19  0.000270116  0.0706955  0.0707299  1607.97  1607.98  3214.36  3214.45
  1514.79  1640.68  1638  0.000275637  0.0721405  0.0721756  1640.84  1640.85  3280.06  3280.16
  1515.04  1674.55  1671.82  0.000281329  0.0736301  0.073666  1674.73  1674.73  3347.79  3347.89
  1515.29  1709.49  1706.7  0.000287199  0.0751664  0.075203  1709.67  1709.67  3417.64  3417.75
  1515.54  1745.54  1742.69  0.000293254  0.0767511  0.0767885  1745.72  1745.72  3489.7  3489.8
  1515.79  1782.73  1779.82  0.000299502  0.0783865  0.0784247  1782.91  1782.92  3564.06  3564.16
  1516.04  1821.12  1818.14  0.000305952  0.0800745  0.0801135  1821.31  1821.32  3640.81  3640.92
  1516.29  1860.76  1857.72  0.000312612  0.0818176  0.0818575  1860.96  1860.96  3720.07  3720.18
  1516.54  1901.71  1898.61  0.000319492  0.0836182  0.0836589  1901.91  1901.92  3801.93  3802.05
  1516.79  1944.03  1940.85  0.000326601  0.0854787  0.0855204  1944.23  1944.24  3886.53  3886.65
  1517.04  1987.76  1984.52  0.00033395  0.0874019  0.0874445  1987.98  1987.99  3973.98  3974.1
  1517.29  2032.99  2029.67  0.000341548  0.0893907  0.0894343  2033.22  2033.22  4064.4  4064.53
  1517.54  2079.78  2076.39  0.000349409  0.091448  0.0914925  2080.01  2080.02  4157.95  4158.07
  1517.79  2128.2  2124.73  0.000357544  0.093577  0.0936226  2128.44  2128.44  4254.75  4254.88
  1518.05  2178.33  2174.77  0.000365965  0.0957811  0.0958277  2178.57  2178.58  4354.96  4355.1
  1518.3  2230.24  2226.6  0.000374688  0.0980638  0.0981116  2230.5  2230.5  4458.76  4458.89
  1518.55  2284.03  2280.3  0.000383725  0.100429  0.100478  2284.29  2284.3  4566.3  4566.43
  1518.8  2339.79  2335.97  0.000393092  0.102881  0.102931  2340.06  2340.06  4677.77  4677.91
  1519.05  2397.61  2393.69  0.000402806  0.105423  0.105474  2397.88  2397.89  4793.36  4793.5
  1519.3  2457.59  2453.58  0.000412883  0.10806  0.108113  2457.88  2457.88  4913.28  4913.43
  1519.55  2519.85  2515.73  0.000423343  0.110798  0.110852  2520.14  2520.15  5037.75  5037.9
  1519.8  2584.49  2580.27  0.000434204  0.11364  0.113696  2584.8  2584.81  5167  5167.15
  1520.05  2651.66  2647.33  0.000445488  0.116593  0.11665  2651.97  2651.98  5301.27  5301.43
  1520.3  2721.46  2717.02  0.000457216  0.119663  0.119721  2721.79  2721.8  5440.84  5441
  1520.55  2794.06  2789.5  0.000469412  0.122855  0.122915  2794.4  2794.41  5585.97  5586.14
  1520.8  2869.59  2864.9  0.000482102  0.126176  0.126238  2869.94  2869.95  5736.98  5737.15
  1521.05  2948.22  2943.4  0.000495312  0.129633  0.129696  2948.58  2948.59  5894.18  5894.35
  1521.3  3030.11  3025.16  0.000509071  0.133234  0.133299  3030.49  3030.5  6057.91  6058.09
  1521.55  3115.45  3110.37  0.00052341  0.136987  0.137054  3115.85  3115.86  6228.54  6228.72
  1521.8  3204.45  3199.21  0.000538361  0.1409  0.140969  3204.86  3204.87  6406.46  6406.65
  1522.06  3297.3  3291.91  0.00055396  0.144983  0.145053  3297.72  3297.73  6592.09  6592.29
  1522.31  3394.23  3388.68  0.000570246  0.149245  0.149317  3394.67  3394.68  6785.88  6786.08
  1522.56  3495.48  3489.77  0.000587258  0.153697  0.153772  3495.94  3495.95  6988.32  6988.53
  1522.81  3601.32  3595.44  0.00060504  0.158351  0.158428  3601.8  3601.81  7199.92  7200.14
  1523.06  3712.03  3705.96  0.000623639  0.163219  0.163298  3712.53  3712.54  7421.25  7421.48
  1523.31  3827.9  3821.65  0.000643107  0.168314  0.168396  3828.42  3828.43  7652.91  7653.14
  1523.56  3949.26  3942.81  0.000663497  0.17365  0.173735  3949.81  3949.82  7895.55  7895.79
  1523.81  4076.46  4069.81  0.000684869  0.179244  0.179331  4077.04  4077.05  8149.88  8150.12
  1524.06  4209.89  4203.02  0.000707286  0.185111  0.185201  4210.49  4210.5  8416.64  8416.89
  1524.31  4349.95  4342.85  0.000730818  0.191269  0.191363  4350.58  4350.59  8696.67  8696.93
  1524.56  4497.1  4489.75  0.00075554  0.197739  0.197836  4497.75  4497.76  8990.85  8991.12
  1524.81  4651.8  4644.2  0.000781532  0.204542  0.204642  4652.49  4652.5  9300.15  9300.43
  1525.06  4814.59  4806.73  0.000808883  0.2117  0.211803  4815.31  4815.32  9625.62  9625.91
  1525.31  4986.04  4977.9  0.000837688  0.219239  0.219346  4986.8  4986.81  9968.4  9968.7
  1525.56  5166.77  5158.33  0.000868053  0.227186  0.227297  5167.56  5167.58  10329.7  10330
  1525.81  5357.46  5348.71  0.000900092  0.235571  0.235686  5358.29  5358.31  10711  10711.3
  1526.07  5558.85  5549.77  0.000933928  0.244427  0.244546  5559.73  5559.74  11113.6  11114
  1526.32  5771.75  5762.32  0.000969698  0.253788  0.253912  5772.67  5772.69  11539.3  11539.6
  1526.57  5997.05  5987.26  0.00100755  0.263695  0.263824  5998.03  5998.05  11989.7  11990.1
  1526.82  6235.73  6225.55  0.00104765  0.274191  0.274324  6236.76  6236.78  12467  12467.3
  1527.07  6488.87  6478.27  0.00109019  0.285322  0.285461  6489.96  6489.98  12973.1  12973.4
  1527.32  6757.64  6746.6  0.00113534  0.29714  0.297285  6758.79  6758.81  13510.4  13510.8
  1527.57  7043.35  7031.85  0.00118335  0.309704  0.309855  7044.57  7044.59  14081.7  14082.1
  1527.82  7347.45  7335.45  0.00123444  0.323076  0.323233  7348.75  7348.77  14689.7  14690.1
  1528.07  7671.54  7659.01  0.00128889  0.337327  0.337491  7672.92  7672.94  15337.6  15338.1
  1528.32  8017.39  8004.3  0.001347  0.352535  0.352707  8018.86  8018.88  16029.1  16029.6
  1528.57  8386.99  8373.29  0.0014091  0.368788  0.368967  8388.55  8388.57  16768.1  16768.6
  1528.82  8782.53  8768.19  0.00147556  0.386181  0.386369  8784.2  8784.22  17558.9  17559.5
  1529.07  9206.49  9191.46  0.0015468  0.404824  0.405021  9208.27  9208.3  18406.6  18407.1
  1529.32  9661.63  9645.85  0.00162327  0.424838  0.425045  9663.54  9663.56  19316.6  19317.2
  1529.57  10151  10134.5  0.0017055  0.44636  0.446577  10153.1  10153.1  20295.1  20295.7
  1529.82  10678.2  10660.8  0.00179408  0.469543  0.469771  10680.4  10680.5  21349.2  21349.8
  1530.08  11247.2  11228.8  0.00188967  0.49456  0.494801  11249.5  11249.6  22486.7  22487.4
  1530.33  11862.3  11842.9  0.00199303  0.52161  0.521864  11864.8  11864.9  23716.6  23717.3
  1530.58  12528.7  12508.2  0.002105  0.550914  0.551182  12531.4  12531.5  25049  25049.7
  1530.83  13252.1  13230.5  0.00222656  0.582728  0.583012  13255.1  13255.2  26495.5  26496.3
  1531.08  14039.3  14016.4  0.00235882  0.617342  0.617643  14042.5  14042.5  28069.3  28070.2
  1531.33  14897.7  14873.4  0.00250306  0.655091  0.65541  14901.2  14901.2  29785.6  29786.5
  1531.58  15836.1  15810.2  0.00266073  0.696358  0.696697  15839.9  15840  31661.9  31662.9
  1531.83  16864.6  16837.1  0.00283355  0.741586  0.741947  16868.8  16868.8  33718.4  33719.4
  1532.08  17994.9  17965.5  0.00302348  0.791292  0.791677  17999.5  17999.5  35978.3  35979.4
  1532.33  19240.6  19209.2  0.00323279  0.846073  0.846485  19245.6  19245.7  38469.1  38470.3
  1532.58  20617.6  20584  0.00346419  0.906631  0.907073  20623.2  20623.3  41222.5  41223.8
  1532.83  22144.8  22108.6  0.00372079  0.973789  0.974263  22150.9  22151  44276  44277.3
  1533.08  23844  23805.1  0.00400633  1.04852  1.04903  23850.9  23850.9  47673.7  47675.1
  1533.33  25741.6  25699.6  0.00432519  1.13197  1.13252  25749.2  25749.3  51467.9  51469.5
  1533.58  27868.7  27823.2  0.00468262  1.22551  1.22611  27877.2  27877.2  55721  55722.8
  1533.83  30262.5  30213.1  0.00508489  1.33079  1.33144  30272.1  30272.2  60507.7  60509.6
  1534.09  32968.2  32914.4  0.00553955  1.44978  1.45049  32979  32979.1  65917.8  65919.9
  1534.34  36040  35981.1  0.00605575  1.58487  1.58564  36052.2  36052.3  72060.1  72062.3
  1534.59  39544.1  39479.5  0.0066446  1.73898  1.73983  39558  39558.1  79066.8  79069.3
  1534.84  43561.4  43490.3  0.0073197  1.91566  1.9166  43577.3  43577.5  87099.9  87102.7
  1535.09  48191.6  48112.9  0.0080978  2.1193  2.12033  48209.9  48210  96358.5  96361.6
  1535.34  53557.5  53470  0.00899956  2.3553  2.35644  53578.7  53578.9  107088  107092
  1535.59  59811.8  59714.2  0.0100506  2.63037  2.63165  59836.5  59836.7  119595  119599
  1535.84  67144.5  67034.9  0.0112829  2.95288  2.95431  67173.4  67173.6  134258  134262
  1536.09  75792.1  75668.4  0.0127363  3.33322  3.33484  75826.3  75826.5  151551  151556
  1536.34  86049  85908.5  0.01446  3.78435  3.78619  86089.5  86089.7  172062  172067
  1536.59  98278.6  98118.1  0.0165154  4.32225  4.32435  98326.7  98327  196518  196524
  1536.84  112923  112738  0.0189766  4.96636  4.96877  112980  112981  225802  225810
  1537.09  130503  130290  0.0219313  5.73962  5.74242  130572  130573  260959  260968
  1537.34  151602  151354  0.0254771  6.6676  6.67084  151684  151685  303151  303160
  1537.59  176790  176502  0.0297104  7.77548  7.77926  176888  176889  353521  353533
  1537.84  206477  206139  0.0346993  9.08111  9.08553  206591  206591  412883  412897
  1538.1  240587  240195  0.0404313  10.5812  10.5864  240717  240717  481090  481106
  1538.35  278056  277602  0.0467267  12.2288  12.2348  278195  278195  556003  556021
  1538.6  316168  315652  0.0531287  13.9044  13.9112  316303  316304  632190  632210
  1538.85  350150  349578  0.0588343  15.3978  15.4053  350261  350263  700099  700121
  1539.1  373755  373145  0.0627944  16.4344  16.4424  373822  373823  747245  747268
  1539.35  381424  380802  0.0640756  16.7699  16.7781  381432  381433  762518  762540
  1539.6  371122  370516  0.062338  16.3154  16.3233  371072  371073  741865  741886
  1539.85  345557  344992  0.0580381  15.1902  15.1976  345463  345464  690713  690732
  1540.1  310577  310070  0.0521594  13.6517  13.6583  310462  310462  620764  620781
  1540.35  272308  271863  0.0457302  11.969  11.9749  272189  272189  544256  544270
  1540.6  235217  234833  0.0395003  10.3385  10.3435  235106  235106  470115  470127
  1540.85  201733  201404  0.033877  8.86671  8.87102  201635  201635  403190  403200
  1541.1  172733  172451  0.0290071  7.59209  7.59579  172649  172650  345230  345239
  1541.35  148191  147949  0.0248858  6.51341  6.51658  148120  148120  296179  296187
  1541.6  127658  127449  0.0214379  5.61099  5.61372  127599  127599  255144  255150
  1541.85  110553  110373  0.0185658  4.85926  4.86162  110505  110505  220960  220966
  1542.11  96302.7  96145.4  0.0161728  4.23294  4.235  96262.2  96262.4  192480  192485
  1542.36  84395.1  84257.3  0.0141733  3.70959  3.7114  84361.3  84361.5  168682  168686
  1542.61  74400.8  74279.4  0.0124951  3.27033  3.27193  74372.5  74372.7  148707  148711
  1542.86  65967.6  65859.9  0.0110789  2.89968  2.90109  65943.7  65943.9  131853  131856
  1543.11  58810.4  58714.4  0.00987702  2.58511  2.58637  58790.2  58790.4  117549  117552
  1543.36  52700.4  52614.3  0.00885097  2.31656  2.31768  52683.1  52683.3  105337  105340
  1543.61  47453.7  47376.2  0.00796988  2.08595  2.08696  47438.9  47439.1  94850.6  94853.2
  1543.86  42922.6  42852.6  0.00720896  1.88679  1.88771  42909.9  42910  85794.5  85796.9
  1544.11  38988.1  38924.4  0.00654821  1.71385  1.71469  38977.1  38977.2  77930.6  77932.7
  1544.36  35553.6  35495.5  0.00597143  1.56289  1.56365  35544  35544.1  71066  71068
  1544.61  32540.6  32487.5  0.00546543  1.43045  1.43115  32532.2  32532.3  65044  65045.7
  1544.86  29884.9  29836.1  0.00501942  1.31372  1.31436  29877.5  29877.6  59736  59737.6
  1545.11  27533.7  27488.8  0.00462455  1.21037  1.21096  27527.2  27527.3  55036.5  55038
  1545.36  25443.3  25401.7  0.00427347  1.11848  1.11903  25437.5  25437.6  50858.2  50859.6
  1545.61  23577.3  23538.8  0.00396009  1.03646  1.03696  23572.1  23572.2  47128.5  47129.8
  1545.86  21905.4  21869.6  0.0036793  0.962969  0.963438  21900.8  21900.9  43786.8  43788
  1546.12  20402.1  20368.8  0.00342682  0.896888  0.897325  20398  20398  40782  40783.1
  1546.37  19045.8  19014.7  0.00319903  0.837271  0.837678  19042.1  19042.2  38071.1  38072.2
  1546.62  17818.4  17789.3  0.00299288  0.783315  0.783696  17815.1  17815.1  35617.7  35618.7
  1546.87  16704.2  16676.9  0.00280574  0.734336  0.734694  16701.2  16701.2  33390.5  33391.5
  1547.12  15689.9  15664.3  0.00263539  0.68975  0.690086  15687.2  15687.2  31363.2  31364
  1547.37  14764.1  14740  0.0024799  0.649053  0.649369  14761.6  14761.7  29512.6  29513.5
  1547.62  13916.9  13894.2  0.00233761  0.611811  0.612109  13914.6  13914.7  27819.2  27820
  1547.87  13139.8  13118.3  0.00220708  0.577649  0.57793  13137.7  13137.8  26265.8  26266.6
  1548.12  12425.3  12405  0.00208707  0.54624  0.546506  12423.4  12423.4  24837.6  24838.3
  1548.37  11766.9  11747.7  0.0019765  0.517299  0.517551  11765.2  11765.2  23521.7  23522.3
  1548.62  11159  11140.8  0.0018744  0.490577  0.490815  11157.4  11157.5  22306.6  22307.2
  1548.87  10596.6  10579.3  0.00177994  0.465854  0.466081  10595.2  10595.2  21182.4  21183
  1549.12  10075.3  10058.9  0.00169238  0.442938  0.443153  10074  10074  20140.4  20141
  1549.37  9591.28  9575.62  0.00161107  0.421658  0.421863  9590.03  9590.06  19172.8  19173.3
  1549.62  9141.01  9126.08  0.00153544  0.401864  0.402059  9139.85  9139.87  18272.7  18273.3
  1549.87  8721.47  8707.23  0.00146498  0.383421  0.383608  8720.4  8720.43  17434.1  17434.6
  1550.13  8329.97  8316.37  0.00139922  0.36621  0.366389  8328.97  8329  16651.6  16652
  1550.38  7964.07  7951.07  0.00133776  0.350125  0.350295  7963.14  7963.17  15920.1  15920.6
  1550.63  7621.6  7609.16  0.00128024  0.33507  0.335233  7620.74  7620.76  15235.6  15236
  1550.88  7300.62  7288.7  0.00122632  0.320959  0.321115  7299.82  7299.84  14594  14594.4
  1551.13  6999.37  6987.95  0.00117572  0.307716  0.307866  6998.62  6998.65  13991.8  13992.2
  1551.38  6716.29  6705.32  0.00112818  0.295271  0.295415  6715.59  6715.61  13425.9  13426.3
  1551.63  6449.94  6439.41  0.00108344  0.283562  0.2837  6449.29  6449.31  12893.5  12893.9
  1551.88  6199.05  6188.93  0.0010413  0.272533  0.272665  6198.44  6198.45  12392  12392.3
  1552.13  5962.44  5952.7  0.00100155  0.262131  0.262259  5961.86  5961.88  11919  11919.4
  1552.38  5739.06  5729.69  0.000964031  0.252311  0.252433  5738.52  5738.53  11472.5  11472.8
  1552.63  5527.94  5518.91  0.000928569  0.243029  0.243148  5527.43  5527.44  11050.5  11050.8
  1552.88  5328.2  5319.5  0.00089502  0.234249  0.234363  5327.72  5327.74  10651.2  10651.5
  1553.13  5139.05  5130.66  0.000863248  0.225933  0.226043  5138.6  5138.62  10273.1  10273.4
  1553.38  4959.76  4951.66  0.000833132  0.218051  0.218157  4959.33  4959.35  9914.69  9914.97
  1553.63  4789.64  4781.82  0.000804558  0.210572  0.210675  4789.24  4789.26  9574.64  9574.91
  1553.88  4628.1  4620.54  0.000777423  0.203471  0.20357  4627.72  4627.74  9251.72  9251.98
  1554.14  4474.56  4467.26  0.000751633  0.196721  0.196817  4474.21  4474.22  8944.8  8945.06
  1554.39  4328.51  4321.45  0.000727101  0.1903  0.190393  4328.18  4328.19  8652.85  8653.1
  1554.64  4189.47  4182.63  0.000703746  0.184188  0.184277  4189.16  4189.17  8374.91  8375.15
  1554.89  4057  4050.38  0.000681495  0.178364  0.178451  4056.7  4056.71  8110.1  8110.34
  1555.14  3930.7  3924.28  0.000660279  0.172811  0.172895  3930.41  3930.42  7857.62  7857.85
  1555.39  3810.18  3803.96  0.000640035  0.167513  0.167594  3809.91  3809.92  7616.71  7616.93
  1555.64  3695.1  3689.07  0.000620705  0.162454  0.162533  3694.85  3694.86  7386.67  7386.88
  1555.89  3585.15  3579.29  0.000602236  0.15762  0.157697  3584.91  3584.92  7166.87  7167.08
  1556.14  3480.01  3474.33  0.000584576  0.152998  0.153072  3479.78  3479.79  6956.71  6956.91
  1556.39  3379.42  3373.9  0.000567679  0.148576  0.148648  3379.2  3379.21  6755.63  6755.82
  1556.64  3283.12  3277.76  0.000551503  0.144342  0.144412  3282.91  3282.92  6563.11  6563.3
  1556.89  3190.86  3185.65  0.000536006  0.140286  0.140354  3190.66  3190.67  6378.69  6378.88
  1557.14  3102.43  3097.36  0.000521152  0.136398  0.136465  3102.24  3102.25  6201.92  6202.1
  1557.39  3017.61  3012.69  0.000506905  0.132669  0.132734  3017.44  3017.44  6032.37  6032.55
  1557.64  2936.22  2931.43  0.000493233  0.129091  0.129154  2936.05  2936.06  5869.67  5869.84
  1557.89  2858.07  2853.4  0.000480105  0.125655  0.125717  2857.91  2857.92  5713.44  5713.6
  1558.15  2782.99  2778.45  0.000467493  0.122355  0.122414  2782.83  2782.84  5563.35  5563.51
  1558.4  2710.82  2706.4  0.000455371  0.119182  0.11924  2710.67  2710.68  5419.09  5419.25
  1558.65  2641.42  2637.11  0.000443713  0.116131  0.116187  2641.28  2641.29  5280.35  5280.51
  1558.9  2574.64  2570.44  0.000432496  0.113195  0.11325  2574.51  2574.52  5146.87  5147.02
  1559.15  2510.36  2506.26  0.000421698  0.110369  0.110423  2510.23  2510.24  5018.37  5018.51
  1559.4  2448.45  2444.46  0.000411299  0.107647  0.1077  2448.33  2448.34  4894.61  4894.75
  1559.65  2388.8  2384.9  0.000401279  0.105025  0.105076  2388.68  2388.69  4775.37  4775.5
  1559.9  2331.3  2327.49  0.00039162  0.102497  0.102547  2331.19  2331.19  4660.42  4660.55
  1560.15  2275.85  2272.13  0.000382305  0.100059  0.100107  2275.74  2275.74  4549.56  4549.69
  1560.4  2222.34  2218.71  0.000373318  0.0977065  0.0977541  2222.24  2222.25  4442.61  4442.74
  1560.65  2170.7  2167.16  0.000364643  0.0954362  0.0954827  2170.6  2170.61  4339.38  4339.5
  1560.9  2120.83  2117.37  0.000356267  0.0932439  0.0932893  2120.74  2120.75  4239.69  4239.82
  1561.15  2072.66  2069.28  0.000348175  0.0911262  0.0911705  2072.57  2072.58  4143.4  4143.52
  1561.4  2026.11  2022.81  0.000340356  0.0890796  0.089123  2026.03  2026.03  4050.34  4050.46
  1561.65  1981.11  1977.88  0.000332796  0.0871012  0.0871436  1981.03  1981.04  3960.38  3960.5
  1561.9  1937.59  1934.43  0.000325485  0.0851878  0.0852293  1937.51  1937.52  3873.38  3873.49
  1562.16  1895.49  1892.39  0.000318413  0.0833367  0.0833773  1895.41  1895.41  3789.21  3789.32
  1562.41  1854.74  1851.71  0.000311568  0.0815451  0.0815849  1854.66  1854.67  3707.75  3707.86
  1562.66  1815.28  1812.32  0.00030494  0.0798107  0.0798495  1815.21  1815.22  3628.89  3628.99
  1562.91  1777.08  1774.17  0.000298522  0.0781309  0.0781689  1777.01  1777.01  3552.51  3552.61
  1563.16  1740.06  1737.22  0.000292304  0.0765035  0.0765408  1739.99  1740  3478.51  3478.61
  1563.41  1704.19  1701.4  0.000286278  0.0749263  0.0749628  1704.12  1704.13  3406.8  3406.89
  1563.66  1669.41  1666.68  0.000280436  0.0733974  0.0734332  1669.35  1669.35  3337.27  3337.37
  1563.91  1635.68  1633.01  0.000274771  0.0719147  0.0719498  1635.63  1635.63  3269.86  3269.95
  1564.16  1602.97  1600.35  0.000269276  0.0704765  0.0705108  1602.91  1602.92  3204.46  3204.55
  1564.41  1571.23  1568.66  0.000263944  0.0690809  0.0691145  1571.17  1571.18  3141  3141.09
  1564.66  1540.41  1537.9  0.000258768  0.0677262  0.0677592  1540.36  1540.37  3079.41  3079.5
  1564.91  1510.5  1508.03  0.000253743  0.066411  0.0664434  1510.45  1510.45  3019.61  3019.69
  1565.16  1481.45  1479.03  0.000248862  0.0651337  0.0651655  1481.4  1481.4  2961.53  2961.61
  1565.41  1453.22  1450.85  0.000244121  0.0638929  0.063924  1453.18  1453.18  2905.11  2905.19
  1565.66  1425.79  1423.47  0.000239514  0.0626871  0.0627177  1425.75  1425.76  2850.28  2850.36
  1565.91  1399.14  1396.85  0.000235036  0.0615151  0.0615451  1399.09  1399.1  2796.99  2797.07
  1566.17  1373.22  1370.98  0.000230682  0.0603756  0.0604051  1373.18  1373.18  2745.18  2745.26
  1566.42  1348.01  1345.81  0.000226448  0.0592675  0.0592964  1347.97  1347.98  2694.79  2694.87
  1566.67  1323.49  1321.33  0.00022233  0.0581896  0.0582179  1323.46  1323.46  2645.78  2645.85
  1566.92  1299.64  1297.52  0.000218322  0.0571407  0.0571686  1299.6  1299.61  2598.09  2598.16
  1567.17  1276.42  1274.34  0.000214422  0.05612  0.0561473  1276.39  1276.39  2551.67  2551.75
  1567.42  1253.82  1251.77  0.000210626  0.0551263  0.0551531  1253.79  1253.79  2506.49  2506.56
  1567.67  1231.81  1229.8  0.000206929  0.0541587  0.0541851  1231.78  1231.78  2462.5  2462.57
  1567.92  1210.38  1208.4  0.000203328  0.0532164  0.0532424  1210.35  1210.35  2419.65  2419.72
  1568.17  1189.5  1187.56  0.000199821  0.0522985  0.0523239  1189.47  1189.47  2377.91  2377.98
  1568.42  1169.15  1167.24  0.000196403  0.051404  0.0514291  1169.12  1169.13  2337.24  2337.31
  1568.67  1149.33  1147.45  0.000193073  0.0505323  0.0505569  1149.3  1149.3  2297.6  2297.67
  1568.92  1130  1128.15  0.000189826  0.0496826  0.0497068  1129.97  1129.97  2258.97  2259.03
  1569.17  1111.15  1109.34  0.00018666  0.0488541  0.0488779  1111.13  1111.13  2221.29  2221.36
  1569.42  1092.78  1090.99  0.000183573  0.0480461  0.0480695  1092.75  1092.75  2184.56  2184.62
  1569.67  1074.85  1073.09  0.000180562  0.047258  0.047281  1074.83  1074.83  2148.72  2148.78
  1569.92  1057.36  1055.63  0.000177624  0.0464891  0.0465117  1057.34  1057.34  2113.76  2113.82
  1570.18  1040.29  1038.6  0.000174757  0.0457388  0.0457611  1040.27  1040.28  2079.64  2079.7
  1570.43  1023.64  1021.97  0.000171959  0.0450065  0.0450284  1023.62  1023.62  2046.35  2046.41
  1570.68  1007.38  1005.73  0.000169228  0.0442916  0.0443132  1007.36  1007.36  2013.84  2013.9
  1570.93  991.503  989.884  0.000166561  0.0435936  0.0436149  991.483  991.486  1982.1  1982.16
  1571.18  975.999  974.405  0.000163957  0.042912  0.0429329  975.98  975.982  1951.11  1951.17
  1571.43  960.855  959.287  0.000161413  0.0422462  0.0422668  960.837  960.84  1920.84  1920.9
  1571.68  946.062  944.517  0.000158928  0.0415958  0.0416161  946.044  946.047  1891.27  1891.32
  1571.93  931.606  930.085  0.0001565  0.0409603  0.0409803  931.589  931.592  1862.37  1862.42
  1572.18  917.48  915.982  0.000154127  0.0403392  0.0403589  917.463  917.466  1834.13  1834.18
  1572.43  903.672  902.196  0.000151807  0.0397322  0.0397515  903.656  903.659  1806.53  1806.58
  1572.68  890.173  888.72  0.00014954  0.0391387  0.0391578  890.158  890.16  1779.54  1779.59
  1572.93  876.974  875.542  0.000147322  0.0385584  0.0385772  876.96  876.962  1753.15  1753.21
  1573.18  864.067  862.656  0.000145154  0.0379909  0.0380095  864.052  864.055  1727.35  1727.4
  1573.43  851.442  850.052  0.000143033  0.0374359  0.0374541  851.428  851.43  1702.11  1702.16
  1573.68  839.091  837.721  0.000140959  0.0368929  0.0369109  839.078  839.08  1677.42  1677.47
  1573.93  827.007  825.657  0.000138929  0.0363616  0.0363793  826.995  826.997  1653.27  1653.32
  1574.19  815.183  813.851  0.000136942  0.0358417  0.0358592  815.17  815.173  1629.63  1629.68
  1574.44  803.609  802.297  0.000134998  0.0353329  0.0353501  803.597  803.6  1606.49  1606.54
  1574.69  792.281  790.987  0.000133095  0.0348349  0.0348518  792.269  792.271  1583.85  1583.89
  1574.94  781.19  779.914  0.000131232  0.0343472  0.034364  781.179  781.181  1561.67  1561.72
  1575.19  770.33  769.072  0.000129408  0.0338698  0.0338863  770.319  770.321  1539.96  1540.01
  1575.44  759.695  758.454  0.000127621  0.0334022  0.0334185  759.684  759.687  1518.7  1518.75
  1575.69  749.278  748.055  0.000125872  0.0329442  0.0329603  749.268  749.27  1497.88  1497.92
  1575.94  739.074  737.867  0.000124157  0.0324956  0.0325115  739.065  739.067  1477.48  1477.53
  1576.19  729.077  727.887  0.000122478  0.0320561  0.0320717  729.068  729.07  1457.5  1457.54
  1576.44  719.282  718.107  0.000120833  0.0316254  0.0316409  719.273  719.275  1437.92  1437.96
  1576.69  709.682  708.523  0.00011922  0.0312034  0.0312186  709.673  709.676  1418.72  1418.77
  1576.94  700.273  699.13  0.000117639  0.0307897  0.0308047  700.265  700.267  1399.92  1399.96
  1577.19  691.05  689.921  0.00011609  0.0303842  0.0303991  691.042  691.044  1381.48  1381.52
  1577.44  682.008  680.894  0.000114571  0.0299867  0.0300013  682  682.002  1363.4  1363.44
  1577.69  673.142  672.043  0.000113082  0.0295969  0.0296113  673.134  673.136  1345.68  1345.72
  1577.94  664.447  663.362  0.000111621  0.0292146  0.0292289  664.44  664.442  1328.3  1328.34
  1578.2  655.92  654.849  0.000110189  0.0288398  0.0288538  655.914  655.916  1311.25  1311.29
  1578.45  647.556  646.499  0.000108784  0.028472  0.0284859  647.55  647.552  1294.53  1294.57
  1578.7  639.351  638.307  0.000107406  0.0281113  0.028125  639.345  639.347  1278.13  1278.17
  1578.95  631.301  630.27  0.000106053  0.0277574  0.0277709  631.295  631.297  1262.04  1262.07
  1579.2  623.402  622.384  0.000104726  0.0274101  0.0274234  623.396  623.398  1246.24  1246.28
  1579.45  615.65  614.644  0.000103424  0.0270692  0.0270824  615.644  615.646  1230.75  1230.78
  1579.7  608.041  607.048  0.000102146  0.0267347  0.0267478  608.036  608.038  1215.54  1215.57
  1579.95  600.573  599.592  0.000100891  0.0264064  0.0264193  600.568  600.57  1200.61  1200.64
  1580.2  593.241  592.273  9.96598e-05  0.0260841  0.0260968  593.236  593.238  1185.95  1185.99
  1580.45  586.043  585.086  9.84506e-05  0.0257676  0.0257802  586.038  586.04  1171.56  1171.6
  1580.7  578.975  578.03  9.72633e-05  0.0254568  0.0254692  578.971  578.972  1157.43  1157.47
  1580.95  572.034  571.1  9.60973e-05  0.0251517  0.0251639  572.03  572.031  1143.56  1143.59
  1581.2  565.217  564.294  9.49521e-05  0.0248519  0.0248641  565.213  565.215  1129.93  1129.96
  1581.45  558.521  557.609  9.38273e-05  0.0245576  0.0245695  558.517  558.519  1116.54  1116.57
  1581.7  551.943  551.042  9.27224e-05  0.0242684  0.0242802  551.94  551.941  1103.39  1103.42
  1581.95  545.481  544.59  9.16368e-05  0.0239843  0.023996  545.477  545.479  1090.47  1090.51
  1582.21  539.131  538.251  9.05702e-05  0.0237051  0.0237167  539.128  539.13  1077.78  1077.81
  1582.46  532.892  532.022  8.95221e-05  0.0234308  0.0234422  532.889  532.891  1065.31  1065.34
  1582.71  526.761  525.9  8.84921e-05  0.0231612  0.0231725  526.758  526.759  1053.05  1053.08
  1582.96  520.734  519.884  8.74797e-05  0.0228962  0.0229074  520.731  520.733  1041  1041.03
  1583.21  514.81  513.97  8.64846e-05  0.0226358  0.0226469  514.808  514.809  1029.16  1029.19
  1583.46  508.987  508.156  8.55064e-05  0.0223798  0.0223907  508.985  508.986  1017.52  1017.55
  1583.71  503.262  502.44  8.45447e-05  0.0221281  0.0221389  503.26  503.261  1006.07  1006.1
  1583.96  497.633  496.82  8.35991e-05  0.0218806  0.0218913  497.631  497.632  994.822  994.851
  1584.21  492.098  491.294  8.26692e-05  0.0216372  0.0216478  492.096  492.097  983.757  983.785
  1584.46  486.655  485.86  8.17548e-05  0.0213979  0.0214084  486.652  486.654  972.875  972.903
  1584.71  481.301  480.515  8.08555e-05  0.0211625  0.0211729  481.299  481.3  962.173  962.201
  1584.96  476.035  475.258  7.99709e-05  0.020931  0.0209413  476.033  476.035  951.646  951.674
  1585.21  470.855  470.087  7.91008e-05  0.0207033  0.0207134  470.854  470.855  941.291  941.318
  1585.46  465.76  464.999  7.82448e-05  0.0204793  0.0204893  465.758  465.759  931.104  931.131
  1585.71  460.746  459.994  7.74026e-05  0.0202588  0.0202687  460.745  460.746  921.081  921.108
  1585.96  455.813  455.069  7.65739e-05  0.020042  0.0200517  455.812  455.813  911.22  911.246
  1586.22  450.959  450.222  7.57585e-05  0.0198285  0.0198382  450.957  450.959  901.516  901.542
  1586.47  446.182  445.453  7.4956e-05  0.0196185  0.0196281  446.18  446.182  891.966  891.992
  1586.72  441.48  440.759  7.41661e-05  0.0194118  0.0194213  441.479  441.48  882.567  882.592
  1586.97  436.852  436.139  7.33887e-05  0.0192083  0.0192177  436.851  436.852  873.315  873.341
  1587.22  432.297  431.591  7.26235e-05  0.019008  0.0190173  432.296  432.297  864.208  864.234
  1587.47  427.812  427.113  7.18701e-05  0.0188109  0.0188201  427.811  427.812  855.243  855.268
  1587.72  423.397  422.706  7.11285e-05  0.0186168  0.0186258  423.396  423.397  846.417  846.442
  1587.97  419.05  418.365  7.03982e-05  0.0184256  0.0184346  419.049  419.05  837.726  837.751
  1588.22  414.769  414.092  6.96791e-05  0.0182374  0.0182463  414.768  414.77  829.169  829.193
  1588.47  410.554  409.883  6.8971e-05  0.0180521  0.0180609  410.553  410.554  820.742  820.766
  1588.72  406.402  405.739  6.82736e-05  0.0178696  0.0178783  406.402  406.403  812.443  812.467
  1588.97  402.313  401.656  6.75867e-05  0.0176898  0.0176984  402.313  402.314  804.269  804.293
  1589.22  398.286  397.636  6.69102e-05  0.0175127  0.0175213  398.286  398.287  796.218  796.241
  1589.47  394.319  393.675  6.62437e-05  0.0173383  0.0173468  394.318  394.32  788.287  788.31
  1589.72  390.41  389.773  6.55872e-05  0.0171665  0.0171749  390.41  390.411  780.474  780.496
  1589.97  386.56  385.928  6.49403e-05  0.0169972  0.0170055  386.56  386.561  772.776  772.799
  1590.23  382.766  382.141  6.4303e-05  0.0168304  0.0168386  382.766  382.767  765.192  765.214
  1590.48  379.027  378.409  6.3675e-05  0.016666  0.0166742  379.028  379.029  757.718  757.74
  1590.73  375.344  374.731  6.30562e-05  0.0165041  0.0165121  375.344  375.345  750.354  750.376
  1590.98  371.713  371.106  6.24463e-05  0.0163444  0.0163524  371.713  371.714  743.096  743.118
  1591.23  368.135  367.534  6.18453e-05  0.0161871  0.016195  368.135  368.137  735.944  735.965
  1591.48  364.609  364.013  6.12528e-05  0.0160321  0.0160399  364.609  364.61  728.894  728.915
  1591.73  361.132  360.543  6.06689e-05  0.0158793  0.015887  361.133  361.134  721.944  721.966
  1591.98  357.706  357.122  6.00932e-05  0.0157286  0.0157363  357.706  357.707  715.094  715.115
  1592.23  354.327  353.749  5.95258e-05  0.0155801  0.0155877  354.328  354.329  708.341  708.361
  1592.48  350.997  350.424  5.89663e-05  0.0154336  0.0154412  350.997  350.998  701.683  701.703
  1592.73  347.713  347.145  5.84146e-05  0.0152893  0.0152967  347.714  347.715  695.118  695.138
  1592.98  344.475  343.913  5.78707e-05  0.0151469  0.0151543  344.476  344.477  688.645  688.665
  1593.23  341.282  340.725  5.73343e-05  0.0150065  0.0150139  341.283  341.284  682.262  682.282
  1593.48  338.133  337.581  5.68053e-05  0.0148681  0.0148753  338.134  338.135  675.967  675.987
  1593.73  335.028  334.481  5.62837e-05  0.0147315  0.0147387  335.028  335.029  669.759  669.778
  1593.98  331.965  331.423  5.57691e-05  0.0145969  0.014604  331.966  331.967  663.636  663.655
  1594.24  328.944  328.407  5.52616e-05  0.0144641  0.0144711  328.945  328.946  657.596  657.615
  1594.49  325.964  325.432  5.4761e-05  0.014333  0.01434  325.965  325.966  651.639  651.658
  1594.74  323.024  322.497  5.42672e-05  0.0142038  0.0142107  323.025  323.026  645.762  645.781
  1594.99  320.124  319.601  5.378e-05  0.0140763  0.0140832  320.125  320.126  639.964  639.983
  1595.24  317.263  316.745  5.32993e-05  0.0139505  0.0139573  317.264  317.264  634.244  634.263
  1595.49  314.439  313.926  5.28251e-05  0.0138264  0.0138331  314.44  314.441  628.601  628.619
  1595.74  311.654  311.145  5.23572e-05  0.0137039  0.0137106  311.655  311.656  623.032  623.05
  1595.99  308.905  308.401  5.18954e-05  0.013583  0.0135897  308.906  308.907  617.537  617.555
  1596.24  306.193  305.693  5.14397e-05  0.0134638  0.0134704  306.194  306.195  612.114  612.132
  1596.49  303.516  303.02  5.099e-05  0.0133461  0.0133526  303.517  303.518  606.763  606.78
  1596.74  300.873  300.382  5.05462e-05  0.0132299  0.0132364  300.875  300.876  601.481  601.499
  1596.99  298.266  297.779  5.01081e-05  0.0131153  0.0131217  298.267  298.268  596.268  596.285
  1597.24  295.692  295.209  4.96757e-05  0.0130021  0.0130085  295.693  295.694  591.122  591.139
  1597.49  293.151  292.672  4.92489e-05  0.0128904  0.0128967  293.152  293.153  586.043  586.06
  1597.74  290.643  290.168  4.88276e-05  0.0127801  0.0127864  290.644  290.645  581.029  581.046
  1597.99  288.167  287.696  4.84116e-05  0.0126713  0.0126774  288.168  288.169  576.079  576.096
  1598.25  285.722  285.255  4.80009e-05  0.0125638  0.0125699  285.723  285.724  571.192  571.208
  1598.5  283.308  282.846  4.75955e-05  0.0124577  0.0124637  283.31  283.31  566.366  566.383
  1598.75  280.925  280.466  4.71951e-05  0.0123529  0.0123589  280.926  280.927  561.602  561.618
  1599  278.572  278.117  4.67998e-05  0.0122494  0.0122554  278.573  278.574  556.898  556.914
  1599.25  276.248  275.797  4.64094e-05  0.0121472  0.0121532  276.249  276.25  552.252  552.268
  1599.5  273.953  273.506  4.60239e-05  0.0120463  0.0120522  273.954  273.955  547.664  547.68
  1599.75  271.687  271.243  4.56432e-05  0.0119467  0.0119525  271.688  271.689  543.133  543.149
  1600  269.448  269.008  4.52671e-05  0.0118483  0.0118541  269.45  269.45  538.658  538.674