File: examples/graphene/reference/48x48x1/raman_spectra1.dat
#Raman spectra
#Laser energy   2.33 eV
#Raman shift (cm-1), Raman Spectra (XX,YY,ZZ,s+s+,s-s-,XY,YX,s+s-,s-s+)
  1500  969.719  946.389  0.000304627  0.0795891  0.0796139  971.889  971.892  1929.86  1929.87
  1500.25  983.921  960.249  0.000309089  0.0807547  0.0807799  986.123  986.126  1958.12  1958.14
  1500.5  998.437  974.416  0.000313649  0.0819461  0.0819717  1000.67  1000.67  1987.01  1987.03
  1500.75  1013.28  988.898  0.00031831  0.0831641  0.08319  1015.54  1015.55  2016.54  2016.56
  1501  1028.45  1003.71  0.000323077  0.0844093  0.0844356  1030.75  1030.75  2046.74  2046.75
  1501.25  1043.96  1018.85  0.000327951  0.0856828  0.0857095  1046.3  1046.31  2077.62  2077.63
  1501.5  1059.83  1034.33  0.000332936  0.0869852  0.0870123  1062.21  1062.21  2109.2  2109.21
  1501.75  1076.07  1050.18  0.000338036  0.0883175  0.0883451  1078.48  1078.48  2141.5  2141.52
  1502.01  1092.67  1066.39  0.000343253  0.0896807  0.0897086  1095.12  1095.13  2174.56  2174.57
  1502.26  1109.67  1082.97  0.000348592  0.0910757  0.091104  1112.16  1112.16  2208.38  2208.4
  1502.51  1127.07  1099.95  0.000354057  0.0925034  0.0925322  1129.59  1129.6  2243  2243.02
  1502.76  1144.87  1117.33  0.000359651  0.0939649  0.0939941  1147.44  1147.44  2278.44  2278.46
  1503.01  1163.11  1135.12  0.000365378  0.0954613  0.095491  1165.71  1165.72  2314.72  2314.74
  1503.26  1181.78  1153.34  0.000371244  0.0969937  0.0970239  1184.43  1184.43  2351.88  2351.9
  1503.51  1200.9  1172.01  0.000377251  0.0985633  0.098594  1203.59  1203.6  2389.94  2389.96
  1503.76  1220.49  1191.13  0.000383406  0.100171  0.100202  1223.23  1223.23  2428.93  2428.95
  1504.01  1240.56  1210.72  0.000389712  0.101819  0.10185  1243.35  1243.35  2468.88  2468.9
  1504.26  1261.14  1230.8  0.000396175  0.103507  0.10354  1263.97  1263.97  2509.82  2509.84
  1504.51  1282.23  1251.38  0.0004028  0.105238  0.105271  1285.1  1285.11  2551.79  2551.81
  1504.76  1303.85  1272.48  0.000409592  0.107013  0.107046  1306.77  1306.78  2594.82  2594.84
  1505.01  1326.02  1294.12  0.000416557  0.108832  0.108866  1329  1329  2638.95  2638.97
  1505.26  1348.76  1316.31  0.000423702  0.110699  0.110734  1351.79  1351.8  2684.21  2684.23
  1505.51  1372.09  1339.08  0.000431031  0.112614  0.112649  1375.17  1375.18  2730.64  2730.66
  1505.76  1396.03  1362.45  0.000438552  0.114579  0.114615  1399.17  1399.18  2778.29  2778.31
  1506.02  1420.61  1386.43  0.000446272  0.116596  0.116632  1423.8  1423.8  2827.19  2827.21
  1506.27  1445.83  1411.05  0.000454197  0.118666  0.118703  1449.08  1449.09  2877.4  2877.42
  1506.52  1471.74  1436.33  0.000462335  0.120792  0.12083  1475.05  1475.05  2928.95  2928.97
  1506.77  1498.34  1462.3  0.000470693  0.122976  0.123014  1501.71  1501.72  2981.9  2981.92
  1507.02  1525.68  1488.97  0.000479279  0.12522  0.125259  1529.11  1529.11  3036.3  3036.32
  1507.27  1553.76  1516.38  0.000488103  0.127525  0.127564  1557.26  1557.27  3092.2  3092.22
  1507.52  1582.63  1544.56  0.000497172  0.129894  0.129935  1586.19  1586.2  3149.65  3149.67
  1507.77  1612.31  1573.52  0.000506496  0.13233  0.132371  1615.94  1615.95  3208.72  3208.74
  1508.02  1642.83  1603.31  0.000516084  0.134835  0.134877  1646.53  1646.54  3269.46  3269.48
  1508.27  1674.23  1633.95  0.000525947  0.137412  0.137455  1678  1678.01  3331.94  3331.97
  1508.52  1706.53  1665.47  0.000536095  0.140063  0.140107  1710.38  1710.38  3396.23  3396.26
  1508.77  1739.78  1697.92  0.000546539  0.142792  0.142836  1743.7  1743.7  3462.39  3462.42
  1509.02  1774  1731.32  0.000557291  0.145601  0.145646  1778  1778.01  3530.51  3530.54
  1509.27  1809.25  1765.72  0.000568363  0.148494  0.14854  1813.33  1813.33  3600.65  3600.68
  1509.52  1845.55  1801.15  0.000579767  0.151473  0.151521  1849.71  1849.72  3672.9  3672.93
  1509.77  1882.96  1837.65  0.000591518  0.154544  0.154592  1887.2  1887.21  3747.34  3747.37
  1510.03  1921.51  1875.28  0.000603629  0.157708  0.157757  1925.84  1925.85  3824.07  3824.1
  1510.28  1961.25  1914.07  0.000616116  0.16097  0.16102  1965.68  1965.69  3903.17  3903.2
  1510.53  2002.25  1954.07  0.000628993  0.164334  0.164386  2006.77  2006.77  3984.75  3984.78
  1510.78  2044.53  1995.34  0.000642278  0.167805  0.167857  2049.15  2049.16  4068.91  4068.94
  1511.03  2088.17  2037.93  0.000655988  0.171387  0.17144  2092.89  2092.9  4155.76  4155.79
  1511.28  2133.22  2081.9  0.00067014  0.175085  0.175139  2138.05  2138.05  4245.42  4245.45
  1511.53  2179.74  2127.3  0.000684755  0.178903  0.178959  2184.67  2184.68  4338  4338.04
  1511.78  2227.8  2174.2  0.000699852  0.182847  0.182904  2232.84  2232.85  4433.65  4433.68
  1512.03  2277.46  2222.67  0.000715453  0.186923  0.186981  2282.62  2282.62  4532.48  4532.51
  1512.28  2328.8  2272.77  0.000731581  0.191137  0.191196  2334.07  2334.08  4634.65  4634.69
  1512.53  2381.89  2324.58  0.000748259  0.195494  0.195555  2387.28  2387.29  4740.31  4740.35
  1512.78  2436.81  2378.18  0.000765513  0.200002  0.200064  2442.33  2442.34  4849.61  4849.65
  1513.03  2493.65  2433.66  0.00078337  0.204667  0.204731  2499.3  2499.31  4962.74  4962.78
  1513.28  2552.5  2491.09  0.000801857  0.209498  0.209563  2558.29  2558.3  5079.86  5079.9
  1513.53  2613.45  2550.58  0.000821006  0.2145  0.214567  2619.38  2619.39  5201.17  5201.21
  1513.78  2676.61  2612.22  0.000840847  0.219684  0.219753  2682.69  2682.7  5326.86  5326.9
  1514.04  2742.08  2676.11  0.000861415  0.225058  0.225128  2748.31  2748.32  5457.16  5457.21
  1514.29  2809.98  2742.37  0.000882746  0.230631  0.230702  2816.36  2816.37  5592.29  5592.34
  1514.54  2880.42  2811.13  0.000904876  0.236413  0.236486  2886.97  2886.98  5732.49  5732.54
  1514.79  2953.55  2882.49  0.000927848  0.242414  0.24249  2960.26  2960.27  5878.02  5878.06
  1515.04  3029.48  2956.6  0.000951703  0.248647  0.248724  3036.37  3036.38  6029.14  6029.19
  1515.29  3108.38  3033.59  0.000976489  0.255122  0.255202  3115.45  3115.46  6186.16  6186.21
  1515.54  3190.39  3113.63  0.00100225  0.261853  0.261935  3197.65  3197.66  6349.38  6349.43
  1515.79  3275.68  3196.87  0.00102905  0.268854  0.268938  3283.14  3283.15  6519.12  6519.17
  1516.04  3364.42  3283.48  0.00105693  0.276138  0.276224  3372.09  3372.1  6695.75  6695.8
  1516.29  3456.82  3373.65  0.00108595  0.283722  0.28381  3464.7  3464.71  6879.63  6879.69
  1516.54  3553.06  3467.58  0.00111619  0.291621  0.291712  3561.17  3561.18  7071.18  7071.23
  1516.79  3653.37  3565.47  0.0011477  0.299854  0.299947  3661.71  3661.72  7270.81  7270.87
  1517.04  3757.97  3667.56  0.00118056  0.30844  0.308536  3766.56  3766.57  7478.99  7479.05
  1517.29  3867.12  3774.08  0.00121485  0.317398  0.317497  3875.96  3875.97  7696.22  7696.28
  1517.54  3981.08  3885.3  0.00125066  0.326752  0.326854  3990.18  3990.2  7923.02  7923.08
  1517.79  4100.13  4001.49  0.00128806  0.336524  0.336628  4109.52  4109.53  8159.97  8160.03
  1518.05  4224.59  4122.95  0.00132716  0.346739  0.346847  4234.27  4234.28  8407.67  8407.73
  1518.3  4354.79  4250.01  0.00136806  0.357425  0.357536  4364.76  4364.78  8666.78  8666.85
  1518.55  4491.07  4383.02  0.00141088  0.368611  0.368726  4501.37  4501.39  8938.02  8938.09
  1518.8  4633.83  4522.35  0.00145573  0.380329  0.380447  4644.46  4644.48  9222.15  9222.22
  1519.05  4783.48  4668.4  0.00150274  0.392612  0.392734  4794.47  4794.49  9519.99  9520.06
  1519.3  4940.48  4821.61  0.00155206  0.405498  0.405624  4951.83  4951.85  9832.44  9832.52
  1519.55  5105.3  4982.47  0.00160384  0.419026  0.419157  5117.04  5117.06  10160.5  10160.5
  1519.8  5278.47  5151.47  0.00165825  0.43324  0.433375  5290.62  5290.64  10505.1  10505.2
  1520.05  5460.57  5329.19  0.00171546  0.448187  0.448326  5473.15  5473.17  10867.5  10867.6
  1520.3  5652.21  5516.23  0.00177566  0.463917  0.464061  5665.24  5665.26  11249  11249.1
  1520.55  5854.08  5713.24  0.00183908  0.480486  0.480635  5867.59  5867.61  11650.7  11650.8
  1520.8  6066.9  5920.94  0.00190595  0.497955  0.498109  6080.92  6080.94  12074.3  12074.4
  1521.05  6291.49  6140.13  0.00197651  0.516389  0.516549  6306.04  6306.06  12521.3  12521.4
  1521.3  6528.72  6371.65  0.00205104  0.535861  0.536027  6543.84  6543.86  12993.5  12993.5
  1521.55  6779.56  6616.45  0.00212984  0.556449  0.556622  6795.27  6795.29  13492.7  13492.8
  1521.8  7045.05  6875.56  0.00221325  0.578241  0.578421  7061.39  7061.42  14021.1  14021.2
  1522.06  7326.36  7150.1  0.00230163  0.601331  0.601518  7343.37  7343.4  14581  14581.1
  1522.31  7624.76  7441.32  0.00239538  0.625824  0.626018  7642.48  7642.51  15174.8  15175
  1522.56  7941.65  7750.58  0.00249494  0.651834  0.652037  7960.13  7960.16  15805.6  15805.7
  1522.81  8278.59  8079.41  0.00260079  0.679491  0.679702  8297.88  8297.91  16476.1  16476.3
  1523.06  8637.28  8429.48  0.00271348  0.708933  0.709153  8657.43  8657.47  17190.1  17190.2
  1523.31  9019.64  8802.63  0.00283361  0.740317  0.740547  9040.71  9040.74  17951.1  17951.2
  1523.56  9427.76  9200.94  0.00296183  0.773817  0.774057  9449.82  9449.85  18763.3  18763.5
  1523.81  9864.01  9626.7  0.00309889  0.809625  0.809877  9887.12  9887.16  19631.6  19631.8
  1524.06  10331  10082.5  0.00324561  0.847957  0.848221  10355.2  10355.3  20561.1  20561.2
  1524.31  10831.7  10571.1  0.00340291  0.889053  0.88933  10857.1  10857.2  21557.6  21557.7
  1524.56  11369.3  11095.8  0.00357183  0.933184  0.933474  11396.1  11396.1  22627.6  22627.8
  1524.81  11947.6  11660.2  0.00375352  0.980652  0.980957  11975.8  11975.8  23778.6  23778.8
  1525.06  12570.7  12268.3  0.00394929  1.0318  1.03212  12600.4  12600.5  25018.8  25019
  1525.31  13243.4  12924.8  0.00416063  1.08701  1.08735  13274.7  13274.8  26357.6  26357.8
  1525.56  13970.9  13634.7  0.0043892  1.14673  1.14708  14004  14004.1  27805.6  27805.8
  1525.81  14759.3  14404.2  0.00463691  1.21144  1.21182  14794.4  14794.4  29374.8  29375
  1526.07  15615.5  15239.8  0.00490592  1.28173  1.28213  15652.7  15652.8  31079  31079.2
  1526.32  16547.5  16149.4  0.00519873  1.35823  1.35865  16587  16587  32933.9  32934.2
  1526.57  17564.2  17141.6  0.00551818  1.44168  1.44213  17606.2  17606.3  34957.6  34957.8
  1526.82  18676.1  18226.8  0.00586755  1.53296  1.53344  18720.9  18721  37170.8  37171.1
  1527.07  19895.4  19416.7  0.00625063  1.63304  1.63355  19943.2  19943.3  39597.5  39597.8
  1527.32  21235.9  20725  0.00667182  1.74308  1.74362  21287.1  21287.2  42265.7  42266
  1527.57  22714  22167.6  0.00713625  1.86442  1.865  22769  22769.1  45207.8  45208.2
  1527.82  24348.9  23763.1  0.00764992  1.99862  1.99924  24408  24408.1  48461.9  48462.2
  1528.07  26162.9  25533.4  0.00821989  2.14752  2.14819  26226.6  26226.7  52072.5  52072.9
  1528.32  28182.5  27504.5  0.00885448  2.31331  2.31403  28251.4  28251.5  56092.5  56092.9
  1528.57  30439.3  29706.9  0.00956356  2.49857  2.49934  30514  30514.1  60584.4  60584.9
  1528.82  32970.6  32177.3  0.0103589  2.70636  2.7072  33051.8  33051.9  65622.9  65623.4
  1529.07  35821.4  34959.6  0.0112547  2.94038  2.9413  35910  35910.2  71297.4  71297.9
  1529.32  39045.8  38106.4  0.0122679  3.20508  3.20607  39142.9  39143  77715.6  77716.1
  1529.57  42709.4  41681.9  0.013419  3.50583  3.50692  42816.1  42816.3  85008  85008.6
  1529.82  46892  45763.8  0.0147333  3.84919  3.85038  47009.8  47009.9  93333.6  93334.3
  1530.08  51691.4  50447.7  0.0162414  4.24318  4.2445  51821.9  51822.1  102887  102888
  1530.33  57227.8  55851  0.0179812  4.69769  4.69915  57373.2  57373.4  113908  113908
  1530.58  63650.1  62118.8  0.0199993  5.22493  5.22655  63812.9  63813.1  126692  126693
  1530.83  71143  69431.3  0.0223539  5.84006  5.84187  71326.1  71326.4  141607  141608
  1531.08  79936.3  78013.1  0.0251171  6.56196  6.564  80143.5  80143.8  159111  159112
  1531.33  90316.6  88143.7  0.0283791  7.41416  7.41646  90552.5  90552.8  179775  179776
  1531.58  102640  100170  0.0322517  8.42587  8.42849  102910  102910  204306  204308
  1531.83  117345  114522  0.0368729  9.63314  9.63614  117656  117657  233579  233581
  1532.08  134963  131716  0.0424097  11.0796  11.0831  135324  135325  268652  268654
  1532.33  156119  152363  0.0490579  12.8164  12.8204  156539  156539  310766  310768
  1532.58  181495  177128  0.0570326  14.8998  14.9044  181986  181987  361282  361284
  1532.83  211745  206651  0.0665388  17.3833  17.3887  212320  212321  421500  421503
  1533.08  247283  241334  0.077706  20.3008  20.3071  247954  247955  492240  492244
  1533.33  287878  280952  0.0904615  23.6332  23.6405  288653  288654  573043  573048
  1533.58  332019  324031  0.104329  27.2562  27.2647  332898  332900  660895  660900
  1533.83  376153  367103  0.118191  30.8779  30.8875  377119  377120  748714  748719
  1534.09  414325  404357  0.130175  34.0093  34.0199  415343  415344  824647  824654
  1534.34  439160  428595  0.137964  36.045  36.0562  440175  440176  874014  874020
  1534.59  444637  433940  0.13967  36.4913  36.5026  445592  445594  884842  884849
  1534.84  429292  418963  0.134835  35.2289  35.2398  430146  430148  854236  854243
  1535.09  397100  387546  0.124713  32.5848  32.5949  397839  397840  790127  790134
  1535.34  355172  346627  0.111538  29.1428  29.1518  355799  355800  706667  706673
  1535.59  310438  302969  0.0974859  25.4714  25.4793  310967  310968  617643  617648
  1535.84  267707  261267  0.0840656  21.9649  21.9718  268155  268156  532618  532623
  1536.09  229462  223941  0.0720551  18.8268  18.8327  229843  229844  456524  456528
  1536.34  196499  191772  0.0617045  16.1224  16.1274  196826  196827  390944  390948
  1536.59  168675  164617  0.0529675  13.8395  13.8438  168958  168958  335588  335591
  1536.84  145423  141924  0.0456664  11.9318  11.9356  145669  145670  289330  289332
  1537.09  126058  123025  0.0395858  10.3431  10.3463  126274  126274  250804  250806
  1537.34  109918  107273  0.0345179  9.01889  9.0217  110108  110109  218694  218696
  1537.59  96423.1  94103.3  0.0302805  7.91171  7.91417  96592.2  96592.5  191847  191848
  1537.84  85087.1  83040  0.0267209  6.98165  6.98382  85238  85238.3  169294  169295
  1538.1  75512.7  73695.9  0.0237144  6.1961  6.19803  75648  75648.3  150246  150247
  1538.35  67379.1  65758  0.0211604  5.52876  5.53048  67501  67501.3  134064  134065
  1538.6  60428.7  58974.9  0.0189778  4.9585  4.96004  60539.1  60539.3  120236  120236
  1538.85  54454.7  53144.5  0.0171018  4.46833  4.46972  54555  54555.2  108350  108351
  1539.1  49290.7  48104.8  0.0154802  4.04463  4.04589  49382.2  49382.4  98075.6  98076.4
  1539.35  44802.5  43724.6  0.0140708  3.67637  3.67752  44886.3  44886.5  89145.9  89146.6
  1539.6  40881.4  39897.9  0.0128394  3.35464  3.35569  40958.4  40958.6  81344.5  81345.1
  1539.85  37438.8  36538.1  0.0117583  3.07217  3.07313  37509.8  37509.9  74495  74495.6
  1540.1  34402.2  33574.5  0.0108047  2.82301  2.82389  34467.8  34467.9  68453.1  68453.7
  1540.35  31711.8  30948.8  0.00995978  2.60225  2.60306  31772.5  31772.7  63100  63100.5
  1540.6  29318.1  28612.8  0.00920806  2.40584  2.40659  29374.6  29374.7  58337.4  58337.9
  1540.85  27180.1  26526.2  0.00853662  2.23041  2.2311  27232.7  27232.8  54083.4  54083.9
  1541.1  25263.3  24655.5  0.00793465  2.07312  2.07377  25312.4  25312.5  50269.6  50270
  1541.35  23538.8  22972.5  0.00739306  1.93162  1.93222  23584.8  23584.9  46838.4  46838.8
  1541.6  21982.2  21453.4  0.0069042  1.80389  1.80445  22025.3  22025.4  43741.1  43741.5
  1541.85  20572.7  20077.7  0.00646153  1.68823  1.68876  20613.2  20613.2  40936.6  40936.9
  1542.11  19292.6  18828.5  0.0060595  1.58319  1.58368  19330.7  19330.7  38389.5  38389.8
  1542.36  18126.8  17690.7  0.00569335  1.48752  1.48799  18162.7  18162.7  36069.8  36070.1
  1542.61  17062.2  16651.7  0.005359  1.40017  1.4006  17096.1  17096.1  33951.5  33951.8
  1542.86  16087.6  15700.6  0.00505292  1.32019  1.3206  16119.6  16119.7  32012.3  32012.6
  1543.11  15193.3  14827.7  0.00477203  1.2468  1.24719  15223.6  15223.6  30232.7  30233
  1543.36  14370.7  14024.9  0.00451369  1.17931  1.17967  14399.5  14399.5  28596  28596.2
  1543.61  13612.5  13285  0.00427556  1.11709  1.11744  13639.8  13639.8  27087.3  27087.5
  1543.86  12912.2  12601.5  0.00405561  1.05962  1.05995  12938.1  12938.2  25693.8  25694.1
  1544.11  12264.1  11969  0.00385205  1.00644  1.00675  12288.8  12288.8  24404.2  24404.4
  1544.36  11663.1  11382.5  0.00366331  0.957124  0.957422  11686.7  11686.7  23208.5  23208.7
  1544.61  11105  10837.8  0.003488  0.911319  0.911603  11127.4  11127.5  22097.8  22098
  1544.86  10585.6  10330.9  0.00332488  0.868701  0.868971  10607.1  10607.1  21064.4  21064.5
  1545.11  10101.6  9858.54  0.00317286  0.828981  0.829239  10122.1  10122.1  20101.2  20101.4
  1545.36  9649.76  9417.6  0.00303096  0.791905  0.792152  9669.39  9669.43  19202.2  19202.4
  1545.61  9227.4  9005.4  0.0028983  0.757245  0.757481  9246.2  9246.23  18361.8  18361.9
  1545.86  8831.99  8619.5  0.00277411  0.724797  0.725023  8850.01  8850.04  17575  17575.1
  1546.12  8461.3  8257.73  0.00265768  0.694378  0.694594  8478.6  8478.63  16837.4  16837.5
  1546.37  8113.34  7918.14  0.00254839  0.665823  0.666031  8129.94  8129.97  16145  16145.1
  1546.62  7786.28  7598.95  0.00244567  0.638984  0.639183  7802.24  7802.27  15494.2  15494.3
  1546.87  7478.5  7298.58  0.002349  0.613727  0.613918  7493.85  7493.87  14881.7  14881.8
  1547.12  7188.52  7015.57  0.00225792  0.589931  0.590114  7203.29  7203.31  14304.7  14304.8
  1547.37  6914.99  6748.63  0.00217201  0.567485  0.567661  6929.22  6929.25  13760.4  13760.5
  1547.62  6656.72  6496.56  0.00209089  0.546289  0.54646  6670.43  6670.45  13246.5  13246.6
  1547.87  6412.57  6258.29  0.00201421  0.526254  0.526418  6425.8  6425.82  12760.7  12760.8
  1548.12  6181.56  6032.84  0.00194165  0.507297  0.507455  6194.32  6194.34  12301  12301.1
  1548.37  5962.75  5819.3  0.00187292  0.489341  0.489493  5975.08  5975.1  11865.6  11865.7
  1548.62  5755.31  5616.85  0.00180777  0.472317  0.472464  5767.22  5767.24  11452.8  11452.9
  1548.87  5558.47  5424.74  0.00174594  0.456164  0.456306  5569.98  5570  11061.1  11061.2
  1549.12  5371.51  5242.28  0.00168722  0.440821  0.440959  5382.65  5382.67  10689.1  10689.2
  1549.37  5193.8  5068.84  0.0016314  0.426237  0.42637  5204.57  5204.59  10335.4  10335.5
  1549.62  5024.73  4903.84  0.00157829  0.412363  0.412491  5035.16  5035.18  9999  9999.08
  1549.87  4863.75  4746.73  0.00152773  0.399152  0.399276  4873.86  4873.87  9678.67  9678.74
  1550.13  4710.36  4597.03  0.00147955  0.386564  0.386684  4720.15  4720.17  9373.43  9373.51
  1550.38  4564.08  4454.28  0.00143361  0.37456  0.374677  4573.59  4573.6  9082.36  9082.44
  1550.63  4424.5  4318.05  0.00138977  0.363105  0.363218  4433.72  4433.73  8804.6  8804.67
  1550.88  4291.2  4187.96  0.0013479  0.352166  0.352276  4300.15  4300.16  8539.35  8539.42
  1551.13  4163.82  4063.64  0.00130789  0.341713  0.341819  4172.51  4172.52  8285.87  8285.94
  1551.38  4042.01  3944.76  0.00126963  0.331716  0.33182  4050.45  4050.46  8043.48  8043.54
  1551.63  3925.45  3831.01  0.00123302  0.322151  0.322251  3933.65  3933.67  7811.54  7811.6
  1551.88  3813.85  3722.09  0.00119796  0.312993  0.31309  3821.82  3821.84  7589.46  7589.52
  1552.13  3706.93  3617.74  0.00116438  0.304218  0.304313  3714.68  3714.7  7376.69  7376.75
  1552.38  3604.43  3517.71  0.00113218  0.295806  0.295898  3611.97  3611.99  7172.72  7172.78
  1552.63  3506.11  3421.76  0.0011013  0.287738  0.287827  3513.45  3513.47  6977.08  6977.13
  1552.88  3411.75  3329.67  0.00107166  0.279994  0.280081  3418.9  3418.91  6789.31  6789.36
  1553.13  3321.14  3241.24  0.0010432  0.272558  0.272643  3328.11  3328.12  6609  6609.06
  1553.38  3234.09  3156.28  0.00101586  0.265414  0.265497  3240.87  3240.88  6435.77  6435.82
  1553.63  3150.4  3074.61  0.000989574  0.258546  0.258627  3157.01  3157.03  6269.24  6269.29
  1553.88  3069.91  2996.06  0.000964293  0.251941  0.25202  3076.36  3076.37  6109.08  6109.13
  1554.14  2992.47  2920.47  0.000939967  0.245585  0.245662  2998.76  2998.77  5954.96  5955.01
  1554.39  2917.91  2847.71  0.000916547  0.239467  0.239541  2924.04  2924.05  5806.59  5806.64
  1554.64  2846.09  2777.62  0.000893991  0.233573  0.233646  2852.08  2852.09  5663.69  5663.73
  1554.89  2776.89  2710.09  0.000872255  0.227894  0.227965  2782.74  2782.75  5525.98  5526.03
  1555.14  2710.18  2644.98  0.000851301  0.22242  0.222489  2715.89  2715.9  5393.23  5393.28
  1555.39  2645.84  2582.19  0.000831091  0.217139  0.217207  2651.42  2651.43  5265.2  5265.24
  1555.64  2583.76  2521.6  0.000811591  0.212045  0.212111  2589.21  2589.22  5141.66  5141.7
  1555.89  2523.84  2463.12  0.000792769  0.207127  0.207191  2529.16  2529.17  5022.41  5022.45
  1556.14  2465.97  2406.64  0.000774592  0.202378  0.202441  2471.17  2471.18  4907.26  4907.3
  1556.39  2410.07  2352.08  0.000757032  0.19779  0.197852  2415.15  2415.16  4796.01  4796.05
  1556.64  2356.04  2299.35  0.000740062  0.193356  0.193416  2361.01  2361.02  4688.5  4688.54
  1556.89  2303.8  2248.38  0.000723655  0.18907  0.189128  2308.67  2308.68  4584.56  4584.59
  1557.14  2253.28  2199.07  0.000707787  0.184924  0.184981  2258.05  2258.05  4484.03  4484.06
  1557.39  2204.41  2151.37  0.000692434  0.180912  0.180969  2209.07  2209.07  4386.76  4386.8
  1557.64  2157.1  2105.2  0.000677575  0.17703  0.177085  2161.66  2161.67  4292.62  4292.66
  1557.89  2111.3  2060.5  0.000663188  0.173271  0.173325  2115.76  2115.77  4201.48  4201.51
  1558.15  2066.94  2017.21  0.000649253  0.169631  0.169683  2071.31  2071.32  4113.2  4113.23
  1558.4  2023.96  1975.26  0.000635753  0.166103  0.166155  2028.24  2028.25  4027.67  4027.7
  1558.65  1982.3  1934.61  0.000622669  0.162685  0.162735  1986.5  1986.51  3944.78  3944.81
  1558.9  1941.92  1895.2  0.000609984  0.159371  0.15942  1946.03  1946.04  3864.41  3864.44
  1559.15  1902.75  1856.97  0.000597682  0.156156  0.156205  1906.78  1906.79  3786.48  3786.51
  1559.4  1864.76  1819.89  0.000585748  0.153039  0.153086  1868.71  1868.72  3710.87  3710.9
  1559.65  1827.89  1783.91  0.000574168  0.150013  0.15006  1831.77  1831.77  3637.51  3637.54
  1559.9  1792.1  1748.99  0.000562927  0.147076  0.147122  1795.91  1795.91  3566.29  3566.32
  1560.15  1757.36  1715.08  0.000552013  0.144224  0.144269  1761.09  1761.09  3497.15  3497.18
  1560.4  1723.61  1682.14  0.000541412  0.141455  0.141499  1727.27  1727.27  3429.99  3430.02
  1560.65  1690.82  1650.14  0.000531114  0.138764  0.138807  1694.41  1694.42  3364.75  3364.77
  1560.9  1658.96  1619.05  0.000521106  0.136149  0.136192  1662.49  1662.49  3301.35  3301.37
  1561.15  1627.99  1588.83  0.000511378  0.133608  0.133649  1631.45  1631.46  3239.72  3239.74
  1561.4  1597.88  1559.44  0.00050192  0.131137  0.131178  1601.28  1601.28  3179.8  3179.82
  1561.65  1568.6  1530.86  0.000492722  0.128733  0.128774  1571.93  1571.94  3121.52  3121.55
  1561.9  1540.11  1503.06  0.000483773  0.126395  0.126435  1543.38  1543.39  3064.83  3064.86
  1562.16  1512.39  1476  0.000475066  0.124121  0.124159  1515.61  1515.61  3009.67  3009.69
  1562.41  1485.41  1449.67  0.000466592  0.121907  0.121945  1488.57  1488.58  2955.98  2956.01
  1562.66  1459.15  1424.04  0.000458342  0.119751  0.119788  1462.25  1462.26  2903.72  2903.74
  1562.91  1433.57  1399.08  0.000450309  0.117652  0.117689  1436.62  1436.63  2852.83  2852.85
  1563.16  1408.67  1374.77  0.000442485  0.115608  0.115644  1411.66  1411.67  2803.26  2803.28
  1563.41  1384.4  1351.09  0.000434863  0.113617  0.113652  1387.35  1387.35  2754.97  2754.99
  1563.66  1360.76  1328.02  0.000427436  0.111676  0.111711  1363.65  1363.66  2707.92  2707.94
  1563.91  1337.71  1305.53  0.000420198  0.109785  0.109819  1340.56  1340.57  2662.06  2662.08
  1564.16  1315.25  1283.6  0.000413141  0.107941  0.107975  1318.05  1318.05  2617.36  2617.38
  1564.41  1293.34  1262.23  0.000406261  0.106144  0.106177  1296.1  1296.1  2573.77  2573.79
  1564.66  1271.98  1241.38  0.000399551  0.104391  0.104423  1274.69  1274.7  2531.26  2531.28
  1564.91  1251.14  1221.04  0.000393006  0.102681  0.102713  1253.81  1253.82  2489.79  2489.81
  1565.16  1230.81  1201.2  0.00038662  0.101012  0.101044  1233.44  1233.44  2449.34  2449.36
  1565.41  1210.97  1181.84  0.000380388  0.0993841  0.0994151  1213.56  1213.56  2409.86  2409.88
  1565.66  1191.61  1162.94  0.000374306  0.097795  0.0978255  1194.15  1194.16  2371.32  2371.34
  1565.91  1172.71  1144.49  0.000368368  0.0962437  0.0962736  1175.21  1175.21  2333.71  2333.73
  1566.17  1154.25  1126.48  0.000362571  0.0947289  0.0947584  1156.71  1156.72  2296.98  2297
  1566.42  1136.23  1108.89  0.000356909  0.0932496  0.0932787  1138.65  1138.65  2261.11  2261.13
  1566.67  1118.62  1091.71  0.000351378  0.0918047  0.0918333  1121.01  1121.01  2226.07  2226.09
  1566.92  1101.42  1074.92  0.000345975  0.090393  0.0904212  1103.77  1103.77  2191.84  2191.86
  1567.17  1084.61  1058.52  0.000340696  0.0890137  0.0890414  1086.93  1086.93  2158.39  2158.41
  1567.42  1068.18  1042.48  0.000335536  0.0876656  0.0876929  1070.47  1070.47  2125.71  2125.72
  1567.67  1052.13  1026.82  0.000330493  0.0863479  0.0863748  1054.38  1054.38  2093.76  2093.77
  1567.92  1036.43  1011.5  0.000325562  0.0850597  0.0850862  1038.65  1038.65  2062.52  2062.53
  1568.17  1021.08  996.517  0.000320741  0.0838001  0.0838262  1023.27  1023.27  2031.97  2031.99
  1568.42  1006.07  981.867  0.000316026  0.0825682  0.0825939  1008.22  1008.23  2002.1  2002.12
  1568.67  991.39  967.539  0.000311414  0.0813633  0.0813886  993.51  993.514  1972.89  1972.9
  1568.92  977.027  953.521  0.000306903  0.0801845  0.0802095  979.116  979.12  1944.3  1944.32
  1569.17  962.974  939.806  0.000302488  0.0790312  0.0790558  965.033  965.037  1916.34  1916.35
  1569.42  949.221  926.384  0.000298168  0.0779025  0.0779268  951.252  951.255  1888.97  1888.99
  1569.67  935.761  913.247  0.00029394  0.0767978  0.0768218  937.763  937.766  1862.18  1862.2
  1569.92  922.584  900.388  0.000289801  0.0757165  0.0757401  924.559  924.562  1835.96  1835.98
  1570.18  909.684  887.798  0.000285749  0.0746578  0.0746811  911.631  911.635  1810.29  1810.31
  1570.43  897.053  875.471  0.000281782  0.0736211  0.0736441  898.973  898.976  1785.16  1785.17
  1570.68  884.682  863.398  0.000277896  0.0726059  0.0726285  886.576  886.579  1760.54  1760.55
  1570.93  872.566  851.573  0.00027409  0.0716115  0.0716338  874.434  874.437  1736.43  1736.44
  1571.18  860.696  839.989  0.000270361  0.0706374  0.0706594  862.539  862.543  1712.81  1712.82
  1571.43  849.067  828.64  0.000266709  0.0696831  0.0697048  850.886  850.889  1689.66  1689.68
  1571.68  837.672  817.519  0.000263129  0.0687479  0.0687693  839.467  839.47  1666.99  1667
  1571.93  826.505  806.62  0.000259621  0.0678314  0.0678525  828.276  828.279  1644.77  1644.78
  1572.18  815.559  795.938  0.000256183  0.0669331  0.0669539  817.307  817.31  1622.98  1623
  1572.43  804.829  785.466  0.000252813  0.0660525  0.0660731  806.554  806.557  1601.63  1601.64
  1572.68  794.31  775.2  0.000249509  0.0651892  0.0652095  796.012  796.015  1580.7  1580.71
  1572.93  783.995  765.133  0.000246268  0.0643427  0.0643627  785.676  785.678  1560.17  1560.18
  1573.18  773.88  755.261  0.000243091  0.0635125  0.0635323  775.539  775.542  1540.04  1540.05
  1573.43  763.959  745.579  0.000239975  0.0626983  0.0627179  765.597  765.6  1520.3  1520.31
  1573.68  754.228  736.082  0.000236918  0.0618997  0.061919  755.845  755.848  1500.93  1500.94
  1573.93  744.681  726.765  0.000233919  0.0611162  0.0611352  746.278  746.281  1481.94  1481.95
  1574.19  735.314  717.623  0.000230977  0.0603475  0.0603663  736.891  736.894  1463.3  1463.31
  1574.44  726.123  708.653  0.00022809  0.0595932  0.0596117  727.681  727.683  1445  1445.02
  1574.69  717.103  699.85  0.000225257  0.0588529  0.0588712  718.641  718.644  1427.05  1427.07
  1574.94  708.25  691.21  0.000222476  0.0581264  0.0581445  709.769  709.772  1409.44  1409.45
  1575.19  699.56  682.729  0.000219746  0.0574132  0.057431  701.061  701.063  1392.14  1392.15
  1575.44  691.028  674.403  0.000217066  0.056713  0.0567307  692.511  692.514  1375.17  1375.18
  1575.69  682.652  666.228  0.000214435  0.0560256  0.056043  684.117  684.12  1358.5  1358.51
  1575.94  674.427  658.201  0.000211851  0.0553505  0.0553678  675.875  675.877  1342.13  1342.14
  1576.19  666.35  650.318  0.000209314  0.0546876  0.0547047  667.78  667.783  1326.06  1326.07
  1576.44  658.416  642.576  0.000206822  0.0540366  0.0540534  659.83  659.833  1310.27  1310.28
  1576.69  650.624  634.971  0.000204375  0.0533971  0.0534137  652.021  652.024  1294.76  1294.77
  1576.94  642.969  627.5  0.00020197  0.0527688  0.0527853  644.35  644.352  1279.53  1279.54
  1577.19  635.448  620.16  0.000199608  0.0521516  0.0521679  636.813  636.816  1264.56  1264.57
  1577.44  628.059  612.948  0.000197286  0.0515452  0.0515612  629.408  629.41  1249.86  1249.87
  1577.69  620.797  605.862  0.000195006  0.0509492  0.0509651  622.131  622.133  1235.41  1235.42
  1577.94  613.661  598.897  0.000192764  0.0503636  0.0503793  614.98  614.982  1221.2  1221.21
  1578.2  606.647  592.052  0.000190561  0.0497879  0.0498034  607.951  607.953  1207.25  1207.26
  1578.45  599.753  585.323  0.000188395  0.0492221  0.0492374  601.041  601.044  1193.53  1193.54
  1578.7  592.975  578.709  0.000186266  0.0486659  0.048681  594.249  594.251  1180.04  1180.05
  1578.95  586.311  572.205  0.000184173  0.048119  0.048134  587.572  587.574  1166.78  1166.79
  1579.2  579.759  565.811  0.000182115  0.0475813  0.0475961  581.006  581.008  1153.74  1153.75
  1579.45  573.317  559.523  0.000180091  0.0470525  0.0470672  574.549  574.552  1140.92  1140.93
  1579.7  566.981  553.34  0.000178101  0.0465326  0.0465471  568.2  568.202  1128.31  1128.32
  1579.95  560.749  547.258  0.000176143  0.0460211  0.0460355  561.955  561.957  1115.91  1115.92
  1580.2  554.62  541.276  0.000174218  0.0455181  0.0455323  555.813  555.815  1103.71  1103.72
  1580.45  548.59  535.392  0.000172324  0.0450233  0.0450373  549.77  549.772  1091.71  1091.72
  1580.7  542.659  529.603  0.000170461  0.0445365  0.0445504  543.826  543.828  1079.91  1079.92
  1580.95  536.823  523.907  0.000168628  0.0440575  0.0440712  537.977  537.979  1068.3  1068.3
  1581.2  531.08  518.303  0.000166824  0.0435862  0.0435998  532.223  532.225  1056.87  1056.88
  1581.45  525.429  512.788  0.000165049  0.0431225  0.0431359  526.56  526.562  1045.62  1045.63
  1581.7  519.868  507.361  0.000163302  0.0426661  0.0426794  520.987  520.989  1034.56  1034.56
  1581.95  514.395  502.019  0.000161583  0.0422169  0.04223  515.502  515.504  1023.66  1023.67
  1582.21  509.007  496.761  0.00015989  0.0417747  0.0417877  510.103  510.105  1012.94  1012.95
  1582.46  503.704  491.586  0.000158224  0.0413395  0.0413524  504.788  504.79  1002.39  1002.4
  1582.71  498.483  486.49  0.000156585  0.040911  0.0409238  499.556  499.558  991.999  992.007
  1582.96  493.343  481.474  0.00015497  0.0404892  0.0405018  494.405  494.407  981.77  981.778
  1583.21  488.282  476.535  0.00015338  0.0400738  0.0400863  489.333  489.335  971.699  971.706
  1583.46  483.298  471.671  0.000151815  0.0396648  0.0396772  484.339  484.341  961.781  961.789
  1583.71  478.391  466.881  0.000150273  0.039262  0.0392743  479.421  479.423  952.015  952.022
  1583.96  473.557  462.164  0.000148755  0.0388654  0.0388775  474.577  474.579  942.396  942.404
  1584.21  468.797  457.518  0.000147259  0.0384747  0.0384867  469.806  469.808  932.923  932.93
  1584.46  464.108  452.942  0.000145787  0.0380898  0.0381017  465.107  465.109  923.591  923.598
  1584.71  459.489  448.434  0.000144336  0.0377108  0.0377225  460.478  460.48  914.399  914.406
  1584.96  454.938  443.993  0.000142906  0.0373373  0.0373489  455.918  455.92  905.343  905.35
  1585.21  450.455  439.617  0.000141498  0.0369694  0.0369809  451.425  451.427  896.421  896.428
  1585.46  446.037  435.306  0.00014011  0.0366068  0.0366182  446.998  447  887.631  887.638
  1585.71  441.685  431.058  0.000138743  0.0362496  0.0362609  442.636  442.638  878.969  878.976
  1585.96  437.395  426.872  0.000137396  0.0358976  0.0359088  438.338  438.339  870.433  870.44
  1586.22  433.168  422.747  0.000136068  0.0355507  0.0355617  434.102  434.103  862.021  862.027
  1586.47  429.002  418.681  0.000134759  0.0352087  0.0352197  429.926  429.928  853.73  853.737
  1586.72  424.895  414.673  0.000133469  0.0348717  0.0348826  425.811  425.813  845.558  845.565
  1586.97  420.848  410.723  0.000132198  0.0345395  0.0345503  421.755  421.756  837.503  837.509
  1587.22  416.857  406.828  0.000130944  0.034212  0.0342227  417.756  417.758  829.562  829.569
  1587.47  412.924  402.989  0.000129709  0.0338892  0.0338998  413.814  413.815  821.734  821.74
  1587.72  409.045  399.204  0.00012849  0.0335709  0.0335814  409.927  409.929  814.016  814.022
  1587.97  405.221  395.472  0.000127289  0.0332571  0.0332675  406.095  406.097  806.406  806.413
  1588.22  401.451  391.792  0.000126105  0.0329476  0.0329579  402.316  402.318  798.903  798.909
  1588.47  397.733  388.164  0.000124937  0.0326425  0.0326527  398.59  398.592  791.503  791.509
  1588.72  394.066  384.585  0.000123785  0.0323415  0.0323516  394.915  394.917  784.206  784.212
  1588.97  390.449  381.056  0.000122649  0.0320447  0.0320547  391.291  391.293  777.009  777.015
  1589.22  386.882  377.575  0.000121529  0.031752  0.0317619  387.717  387.718  769.911  769.917
  1589.47  383.364  374.141  0.000120424  0.0314633  0.0314731  384.191  384.193  762.91  762.916
  1589.72  379.894  370.754  0.000119333  0.0311785  0.0311882  380.713  380.715  756.004  756.01
  1589.97  376.47  367.413  0.000118258  0.0308975  0.0309071  377.282  377.284  749.191  749.197
  1590.23  373.093  364.117  0.000117197  0.0306203  0.0306299  373.898  373.899  742.47  742.475
  1590.48  369.761  360.865  0.00011615  0.0303468  0.0303563  370.558  370.56  735.838  735.844
  1590.73  366.473  357.656  0.000115118  0.030077  0.0300864  367.263  367.265  729.295  729.301
  1590.98  363.229  354.49  0.000114098  0.0298107  0.02982  364.012  364.014  722.839  722.845
  1591.23  360.027  351.365  0.000113093  0.029548  0.0295572  360.804  360.805  716.469  716.474
  1591.48  356.868  348.282  0.000112101  0.0292887  0.0292979  357.638  357.639  710.182  710.187
  1591.73  353.75  345.239  0.000111121  0.0290329  0.0290419  354.514  354.515  703.977  703.983
  1591.98  350.673  342.236  0.000110155  0.0287803  0.0287893  351.43  351.431  697.854  697.859
  1592.23  347.636  339.272  0.000109201  0.0285311  0.02854  348.386  348.388  691.81  691.815
  1592.48  344.638  336.347  0.000108259  0.028285  0.0282939  345.382  345.383  685.844  685.849
  1592.73  341.679  333.459  0.000107329  0.0280422  0.0280509  342.416  342.418  679.955  679.96
  1592.98  338.758  330.607  0.000106412  0.0278024  0.0278111  339.489  339.49  674.142  674.147
  1593.23  335.874  327.793  0.000105506  0.0275657  0.0275743  336.599  336.6  668.402  668.407
  1593.48  333.026  325.014  0.000104611  0.027332  0.0273406  333.745  333.746  662.736  662.741
  1593.73  330.215  322.27  0.000103728  0.0271013  0.0271098  330.928  330.929  657.141  657.146
  1593.98  327.439  319.561  0.000102856  0.0268735  0.0268819  328.146  328.147  651.617  651.622
  1594.24  324.698  316.886  0.000101995  0.0266486  0.0266569  325.399  325.4  646.163  646.168
  1594.49  321.991  314.244  0.000101145  0.0264264  0.0264347  322.687  322.688  640.776  640.781
  1594.74  319.318  311.636  0.000100305  0.026207  0.0262152  320.008  320.009  635.457  635.461
  1594.99  316.678  309.059  9.94761e-05  0.0259904  0.0259985  317.362  317.363  630.203  630.208
  1595.24  314.071  306.515  9.86571e-05  0.0257764  0.0257844  314.749  314.75  625.014  625.019
  1595.49  311.496  304.001  9.78481e-05  0.025565  0.025573  312.168  312.17  619.889  619.894
  1595.74  308.952  301.519  9.70491e-05  0.0253563  0.0253642  309.619  309.62  614.827  614.832
  1595.99  306.439  299.067  9.62598e-05  0.0251501  0.0251579  307.101  307.102  609.827  609.832
  1596.24  303.957  296.644  9.54801e-05  0.0249463  0.0249541  304.614  304.615  604.887  604.892
  1596.49  301.505  294.251  9.47098e-05  0.0247451  0.0247528  302.156  302.157  600.008  600.012
  1596.74  299.082  291.887  9.39489e-05  0.0245463  0.0245539  299.728  299.729  595.186  595.191
  1596.99  296.689  289.551  9.3197e-05  0.0243498  0.0243574  297.33  297.331  590.423  590.428
  1597.24  294.324  287.243  9.24541e-05  0.0241557  0.0241633  294.96  294.961  585.717  585.722
  1597.49  291.987  284.962  9.17201e-05  0.023964  0.0239714  292.618  292.619  581.067  581.071
  1597.74  289.678  282.709  9.09948e-05  0.0237745  0.0237819  290.304  290.305  576.472  576.476
  1597.99  287.396  280.482  9.0278e-05  0.0235872  0.0235946  288.017  288.018  571.931  571.935
  1598.25  285.141  278.281  8.95697e-05  0.0234021  0.0234094  285.757  285.759  567.444  567.448
  1598.5  282.913  276.106  8.88697e-05  0.0232193  0.0232265  283.524  283.525  563.009  563.013
  1598.75  280.71  273.957  8.81779e-05  0.0230385  0.0230457  281.317  281.318  558.626  558.63
  1599  278.533  271.832  8.74941e-05  0.0228598  0.022867  279.135  279.136  554.294  554.298
  1599.25  276.382  269.732  8.68182e-05  0.0226833  0.0226903  276.979  276.98  550.012  550.016
  1599.5  274.255  267.657  8.61501e-05  0.0225087  0.0225157  274.848  274.849  545.78  545.784
  1599.75  272.153  265.605  8.54897e-05  0.0223362  0.0223431  272.741  272.742  541.596  541.6
  1600  270.074  263.577  8.48369e-05  0.0221656  0.0221725  270.658  270.659  537.46  537.464