File: examples/graphene/reference/36x36x1/raman_spectra1.dat
#Raman spectra
#Laser energy   2.33 eV
#Raman shift (cm-1), Raman Spectra (XX,YY,ZZ,s+s+,s-s-,XY,YX,s+s-,s-s+)
  1500  8033.08  7914.15  0.00081313  0.233941  0.234036  8045.83  8045.87  16019.4  16019.1
  1500.25  8185.16  8063.97  0.000828524  0.23837  0.238467  8198.15  8198.19  16322.7  16322.3
  1500.5  8341.59  8218.08  0.000844358  0.242925  0.243024  8354.83  8354.87  16634.6  16634.3
  1500.75  8502.54  8376.65  0.00086065  0.247613  0.247713  8516.04  8516.08  16955.6  16955.2
  1501  8668.18  8539.85  0.000877418  0.252437  0.252539  8681.95  8682  17285.9  17285.5
  1501.25  8838.71  8707.85  0.000894679  0.257403  0.257508  8852.76  8852.81  17626  17625.6
  1501.5  9014.32  8880.86  0.000912455  0.262517  0.262624  9028.64  9028.7  17976.2  17975.8
  1501.75  9195.2  9059.06  0.000930765  0.267785  0.267894  9209.82  9209.87  18336.9  18336.5
  1502.01  9381.58  9242.68  0.00094963  0.273212  0.273323  9396.5  9396.55  18708.6  18708.2
  1502.26  9573.67  9431.92  0.000969075  0.278807  0.27892  9588.9  9588.95  19091.7  19091.2
  1502.51  9771.71  9627.03  0.000989121  0.284574  0.28469  9787.26  9787.32  19486.6  19486.2
  1502.76  9975.95  9828.25  0.0010098  0.290522  0.29064  9991.83  9991.89  19893.9  19893.5
  1503.01  10186.7  10035.8  0.00103112  0.296658  0.296779  10202.9  10202.9  20314.1  20313.6
  1503.26  10404.1  10250.1  0.00105313  0.302991  0.303114  10420.7  10420.7  20747.7  20747.2
  1503.51  10628.6  10471.2  0.00107586  0.309528  0.309654  10645.5  10645.6  21195.3  21194.9
  1503.76  10860.4  10699.6  0.00109932  0.316278  0.316407  10877.7  10877.7  21657.6  21657.1
  1504.01  11099.8  10935.5  0.00112356  0.323252  0.323383  11117.5  11117.6  22135.1  22134.6
  1504.26  11347.2  11179.2  0.00114861  0.330458  0.330592  11365.4  11365.4  22628.6  22628.1
  1504.51  11603  11431.3  0.0011745  0.337907  0.338045  11621.6  11621.6  23138.7  23138.2
  1504.76  11867.6  11691.9  0.00120127  0.345611  0.345751  11886.5  11886.6  23666.2  23665.7
  1505.01  12141.2  11961.5  0.00122898  0.353581  0.353724  12160.6  12160.7  24211.9  24211.4
  1505.26  12424.5  12240.5  0.00125764  0.361829  0.361976  12444.3  12444.4  24776.7  24776.2
  1505.51  12717.7  12529.4  0.00128733  0.370368  0.370519  12738  12738.1  25361.5  25360.9
  1505.76  13021.4  12828.6  0.00131807  0.379213  0.379367  13042.2  13042.3  25967.2  25966.6
  1506.02  13336.1  13138.6  0.00134993  0.388378  0.388536  13357.4  13357.5  26594.7  26594.1
  1506.27  13662.3  13460  0.00138295  0.397879  0.39804  13684.2  13684.3  27245.3  27244.7
  1506.52  14000.6  13793.3  0.00141719  0.407731  0.407897  14023  14023.1  27920  27919.3
  1506.77  14351.6  14139.1  0.00145272  0.417954  0.418123  14374.6  14374.7  28620  28619.3
  1507.02  14716  14498.1  0.00148961  0.428564  0.428738  14739.6  14739.7  29346.5  29345.9
  1507.27  15094.3  14870.9  0.00152791  0.439583  0.439762  15118.6  15118.6  30101.1  30100.4
  1507.52  15487.5  15258.2  0.0015677  0.451032  0.451215  15512.3  15512.4  30885  30884.4
  1507.77  15896.1  15660.7  0.00160906  0.462933  0.463121  15921.6  15921.7  31700  31699.3
  1508.02  16321.1  16079.4  0.00165208  0.475309  0.475502  16347.3  16347.4  32547.5  32546.8
  1508.27  16763.3  16515.1  0.00169685  0.488188  0.488386  16790.2  16790.3  33429.4  33428.6
  1508.52  17223.7  16968.7  0.00174345  0.501595  0.501799  17251.4  17251.5  34347.5  34346.7
  1508.77  17703.2  17441.1  0.00179199  0.515562  0.515771  17731.7  17731.8  35303.8  35303
  1509.02  18203  17933.5  0.00184259  0.530118  0.530333  18232.4  18232.5  36300.6  36299.8
  1509.27  18724.3  18447  0.00189535  0.545297  0.545519  18754.4  18754.5  37340  37339.2
  1509.52  19268.1  18982.9  0.0019504  0.561136  0.561364  19299.2  19299.3  38424.6  38423.8
  1509.77  19836  19542.3  0.00200788  0.577673  0.577908  19868  19868.1  39557  39556.1
  1510.03  20429.2  20126.7  0.00206793  0.59495  0.595192  20462.2  20462.3  40740.1  40739.2
  1510.28  21049.4  20737.7  0.00213071  0.613011  0.61326  21083.4  21083.5  41976.8  41975.9
  1510.53  21698.1  21376.9  0.00219638  0.631905  0.632161  21733.2  21733.3  43270.6  43269.6
  1510.78  22377.2  22045.9  0.00226512  0.651682  0.651947  22413.4  22413.5  44624.9  44623.9
  1511.03  23088.6  22746.7  0.00233713  0.672399  0.672673  23126  23126.1  46043.5  46042.5
  1511.28  23834.3  23481.4  0.00241262  0.694117  0.694399  23872.9  23873  47530.7  47529.6
  1511.53  24616.6  24252.1  0.00249181  0.7169  0.717191  24656.5  24656.6  49090.7  49089.6
  1511.78  25437.9  25061.2  0.00257495  0.740818  0.741119  25479.2  25479.3  50728.6  50727.5
  1512.03  26300.8  25911.4  0.0026623  0.765949  0.766261  26343.5  26343.7  52449.5  52448.3
  1512.28  27208.2  26805.3  0.00275415  0.792376  0.792698  27252.4  27252.6  54259.1  54257.9
  1512.53  28163.1  27746.2  0.00285082  0.820188  0.820521  28209  28209.2  56163.5  56162.3
  1512.78  29169.1  28737.2  0.00295265  0.849483  0.849828  29216.6  29216.8  58169.6  58168.3
  1513.03  30229.6  29782  0.00306  0.880369  0.880727  30278.9  30279.1  60284.6  60283.2
  1513.28  31348.7  30884.6  0.00317329  0.912963  0.913334  31399.9  31400.1  62516.5  62515.1
  1513.53  32530.9  32049.2  0.00329296  0.947391  0.947776  32584.1  32584.3  64874  64872.6
  1513.78  33780.8  33280.7  0.00341949  0.983794  0.984194  33836.1  33836.3  67366.7  67365.2
  1514.04  35103.8  34584.1  0.00355341  1.02232  1.02274  35161.3  35161.5  70005.1  70003.6
  1514.29  36505.6  35965.1  0.00369532  1.06315  1.06358  36565.5  36565.7  72800.7  72799.1
  1514.54  37992.6  37430.1  0.00384584  1.10646  1.10691  38055  38055.2  75766.2  75764.5
  1514.79  39571.7  38985.9  0.0040057  1.15245  1.15291  39636.8  39637.1  78915.5  78913.7
  1515.04  41250.8  40640  0.00417567  1.20135  1.20183  41318.7  41319  82264  82262.1
  1515.29  43038.3  42401.1  0.00435661  1.2534  1.25391  43109.2  43109.5  85828.7  85826.8
  1515.54  44943.7  44278.2  0.0045495  1.3089  1.30943  45017.9  45018.1  89628.6  89626.6
  1515.79  46977.5  46282  0.00475538  1.36813  1.36869  47055.2  47055.5  93684.7  93682.6
  1516.04  49151.5  48423.8  0.00497546  1.43145  1.43203  49232.9  49233.2  98020.3  98018.1
  1516.29  51478.7  50716.5  0.00521104  1.49922  1.49983  51564.1  51564.4  102662  102659
  1516.54  53973.7  53174.6  0.00546362  1.57189  1.57253  54063.5  54063.8  107637  107635
  1516.79  56653  55814.3  0.00573485  1.64992  1.65059  56747.4  56747.7  112981  112978
  1517.04  59535  58653.5  0.00602659  1.73386  1.73456  59634.3  59634.6  118728  118726
  1517.29  62640.3  61712.9  0.00634095  1.8243  1.82504  62745  62745.4  124921  124919
  1517.54  65992.5  65015.4  0.0066803  1.92193  1.92271  66103  66103.4  131607  131604
  1517.79  69618.1  68587.3  0.00704732  2.02752  2.02834  69734.9  69735.3  138837  138834
  1518.05  73547.2  72458.3  0.00744509  2.14195  2.14283  73671  73671.4  146673  146670
  1518.3  77814.5  76662.4  0.00787707  2.26624  2.26716  77945.7  77946.1  155184  155180
  1518.55  82459.1  81238.2  0.00834726  2.40151  2.40248  82598.5  82598.9  164447  164443
  1518.8  87526.2  86230.3  0.00886023  2.54909  2.55012  87674.6  87675.1  174553  174549
  1519.05  93068  91690.1  0.00942125  2.71049  2.71159  93226.2  93226.8  185605  185601
  1519.3  99144.6  97676.7  0.0100364  2.88747  2.88865  99313.6  99314.2  197724  197719
  1519.55  105826  104259  0.0107128  3.08206  3.08332  106007  106007  211049  211044
  1519.8  113193  111517  0.0114586  3.29663  3.29797  113387  113388  225742  225737
  1520.05  121341  119545  0.0122835  3.53395  3.53539  121550  121551  241992  241987
  1520.3  130382  128452  0.0131988  3.79728  3.79883  130608  130608  260024  260019
  1520.55  140449  138369  0.0142179  4.09047  4.09214  140692  140693  280101  280095
  1520.8  151697  149451  0.0153567  4.41809  4.41989  151961  151962  302535  302528
  1521.05  164314  161881  0.016634  4.78557  4.78752  164602  164603  327699  327691
  1521.3  178524  175881  0.0180726  5.19945  5.20156  178838  178839  356039  356032
  1521.55  194596  191715  0.0196997  5.66758  5.66988  194940  194941  388095  388087
  1521.8  212858  209707  0.0215486  6.19948  6.202  213236  213238  424518  424508
  1522.06  233708  230248  0.0236594  6.80676  6.80952  234125  234126  466102  466091
  1522.31  257632  253818  0.0260816  7.5036  7.50665  258095  258097  513819  513807
  1522.56  285231  281008  0.0288758  8.30748  8.31086  285747  285749  568866  568853
  1522.81  317247  312550  0.0321173  9.24002  9.24378  317825  317827  632723  632709
  1523.06  354601  349351  0.0358992  10.328  10.3322  355252  355254  707226  707211
  1523.31  398439  392540  0.0403376  11.605  11.6097  399176  399178  794664  794646
  1523.56  450190  443525  0.0455772  13.1124  13.1177  451029  451032  897885  897865
  1523.81  511630  504055  0.0517978  14.902  14.908  512591  512593  1.02043e+06  1.02041e+06
  1524.06  584945  576284  0.0592209  17.0375  17.0444  586053  586056  1.16666e+06  1.16664e+06
  1524.31  672787  662826  0.0681149  19.5962  19.6042  674072  674075  1.34188e+06  1.34185e+06
  1524.56  778263  766740  0.0787942  22.6686  22.6778  779760  779764  1.55226e+06  1.55222e+06
  1524.81  904782  891386  0.0916042  26.3539  26.3646  906533  906538  1.80461e+06  1.80457e+06
  1525.06  1.0556e+06  1.03997e+06  0.106874  30.7468  30.7593  1.05765e+06  1.05765e+06  2.10543e+06  2.10538e+06
  1525.31  1.23276e+06  1.2145e+06  0.12481  35.907  35.9216  1.23515e+06  1.23515e+06  2.45877e+06  2.45872e+06
  1525.56  1.4351e+06  1.41385e+06  0.145295  41.8003  41.8173  1.43786e+06  1.43787e+06  2.86232e+06  2.86226e+06
  1525.81  1.65505e+06  1.63055e+06  0.16756  48.2061  48.2256  1.65818e+06  1.65819e+06  3.30097e+06  3.3009e+06
  1526.07  1.87486e+06  1.8471e+06  0.189807  54.6068  54.629  1.87829e+06  1.87831e+06  3.73927e+06  3.73919e+06
  1526.32  2.06483e+06  2.03426e+06  0.209028  60.1371  60.1616  2.06843e+06  2.06844e+06  4.11797e+06  4.11788e+06
  1526.57  2.18821e+06  2.15581e+06  0.221502  63.7265  63.7524  2.19178e+06  2.19179e+06  4.36377e+06  4.36368e+06
  1526.82  2.21505e+06  2.18225e+06  0.224202  64.5041  64.5303  2.21838e+06  2.2184e+06  4.41702e+06  4.41693e+06
  1527.07  2.13818e+06  2.10653e+06  0.216406  62.2618  62.2871  2.14115e+06  2.14116e+06  4.26349e+06  4.2634e+06
  1527.32  1.97752e+06  1.94824e+06  0.200133  57.5805  57.6039  1.98007e+06  1.98008e+06  3.94294e+06  3.94285e+06
  1527.57  1.76851e+06  1.74233e+06  0.178972  51.4927  51.5137  1.77066e+06  1.77067e+06  3.52607e+06  3.52599e+06
  1527.82  1.54565e+06  1.52276e+06  0.156414  45.0027  45.021  1.54745e+06  1.54746e+06  3.08165e+06  3.08158e+06
  1528.07  1.33284e+06  1.31311e+06  0.134877  38.8062  38.822  1.33437e+06  1.33437e+06  2.65734e+06  2.65728e+06
  1528.32  1.14241e+06  1.1255e+06  0.115606  33.2616  33.2751  1.14371e+06  1.14371e+06  2.27766e+06  2.27761e+06
  1528.57  978309  963825  0.0989994  28.4837  28.4953  979421  979426  1.95048e+06  1.95044e+06
  1528.82  839792  827358  0.0849827  24.4509  24.4608  840754  840759  1.67433e+06  1.67429e+06
  1529.07  724041  713321  0.0732699  21.0809  21.0895  724880  724884  1.44356e+06  1.44353e+06
  1529.32  627640  618347  0.0635151  18.2743  18.2817  628376  628380  1.25137e+06  1.25134e+06
  1529.57  547294  539191  0.0553849  15.9351  15.9415  547945  547948  1.09119e+06  1.09116e+06
  1529.82  480114  473006  0.0485869  13.9791  13.9848  480693  480695  957250  957230
  1530.08  423680  417407  0.0428763  12.3361  12.3411  424197  424199  844738  844720
  1530.33  376014  370447  0.0380528  10.9483  10.9528  376478  376480  749707  749691
  1530.58  335521  330553  0.0339552  9.76934  9.77331  335939  335941  668975  668960
  1530.83  300917  296461  0.0304534  8.76183  8.7654  301296  301298  599984  599971
  1531.08  271173  267158  0.0274435  7.89583  7.89904  271518  271520  540683  540671
  1531.33  245462  241828  0.0248416  7.14724  7.15014  245777  245779  489421  489410
  1531.58  223115  219812  0.0225802  6.49659  6.49923  223404  223405  444867  444857
  1531.83  203592  200577  0.0206045  5.92814  5.93055  203857  203858  405941  405932
  1532.08  186450  183690  0.0188698  5.42904  5.43125  186695  186696  371764  371756
  1532.33  171330  168793  0.0173396  4.98879  4.99082  171556  171557  341617  341609
  1532.58  157933  155594  0.0159838  4.59872  4.60059  158143  158144  314906  314899
  1532.83  146014  143852  0.0147776  4.25167  4.25339  146209  146210  291141  291134
  1533.08  135367  133363  0.0137002  3.94167  3.94328  135549  135550  269913  269908
  1533.33  125822  123959  0.0127342  3.66375  3.66524  125992  125993  250882  250877
  1533.58  117235  115499  0.0118651  3.41371  3.4151  117394  117394  233760  233755
  1533.83  109483  107862  0.0110806  3.188  3.1893  109632  109633  218304  218299
  1534.09  102464  100947  0.0103702  2.98362  2.98483  102604  102604  204309  204304
  1534.34  96088.9  94666.3  0.00972509  2.798  2.79914  96220.9  96221.4  191598  191594
  1534.59  90283.1  88946.4  0.00913751  2.62895  2.63002  90407.5  90408  180022  180018
  1534.84  84981.4  83723.2  0.00860096  2.47457  2.47558  85098.9  85099.4  169451  169447
  1535.09  80127.9  78941.5  0.00810975  2.33325  2.3342  80239  80239.4  159773  159770
  1535.34  75673.9  74553.5  0.00765898  2.20356  2.20445  75779.2  75779.6  150893  150889
  1535.59  71577.3  70517.6  0.00724438  2.08427  2.08512  71677.2  71677.6  142724  142721
  1535.84  67801.3  66797.4  0.00686222  1.97432  1.97512  67896.1  67896.5  135195  135192
  1536.09  64313.5  63361.3  0.00650924  1.87276  1.87353  64403.7  64404.1  128241  128238
  1536.34  61085.7  60181.3  0.00618256  1.77878  1.7795  61171.6  61171.9  121805  121802
  1536.59  58092.9  57232.8  0.00587966  1.69163  1.69232  58174.7  58175  115837  115835
  1536.84  55312.9  54494  0.00559831  1.61068  1.61133  55391  55391.3  110294  110292
  1537.09  52726.3  51945.6  0.00533652  1.53536  1.53599  52800.8  52801.1  105137  105134
  1537.34  50315.6  49570.6  0.00509254  1.46517  1.46576  50386.9  50387.2  100330  100328
  1537.59  48065.4  47353.7  0.0048648  1.39964  1.40021  48133.6  48133.9  95842.9  95840.8
  1537.84  45961.8  45281.3  0.0046519  1.33839  1.33893  46027.1  46027.4  91648.4  91646.4
  1538.1  43992.4  43341.1  0.00445258  1.28104  1.28156  44055.1  44055.3  87721.6  87719.7
  1538.35  42146.2  41522.2  0.00426572  1.22728  1.22778  42206.3  42206.6  84040.3  84038.5
  1538.6  40413.1  39814.7  0.00409032  1.17682  1.1773  40470.8  40471.1  80584.6  80582.8
  1538.85  38784.1  38209.9  0.00392545  1.12938  1.12984  38839.6  38839.9  77336.5  77334.8
  1539.1  37251.2  36699.6  0.0037703  1.08475  1.08519  37304.6  37304.8  74279.8  74278.2
  1539.35  35806.8  35276.7  0.00362412  1.04269  1.04311  35858.3  35858.5  71399.9  71398.3
  1539.6  34444.5  33934.5  0.00348624  1.00302  1.00343  34494  34494.2  68683.4  68681.9
  1539.85  33158.1  32667.2  0.00335604  0.965559  0.965952  33205.8  33206  66118.3  66116.9
  1540.1  31942.1  31469.2  0.00323297  0.93015  0.930528  31988.1  31988.3  63693.6  63692.2
  1540.35  30791.4  30335.6  0.00311651  0.896644  0.897009  30835.9  30836  61399.2  61397.9
  1540.6  29701.6  29261.9  0.00300621  0.864909  0.865261  29744.5  29744.7  59226.1  59224.8
  1540.85  28668.4  28243.9  0.00290164  0.834823  0.835162  28709.9  28710  57165.9  57164.6
  1541.1  27687.9  27278  0.0028024  0.806273  0.8066  27728  27728.2  55210.9  55209.7
  1541.35  26756.7  26360.6  0.00270816  0.779157  0.779473  26795.5  26795.7  53354.1  53352.9
  1541.6  25871.6  25488.5  0.00261857  0.753381  0.753687  25909.1  25909.2  51589  51587.9
  1541.85  25029.4  24658.8  0.00253333  0.728859  0.729155  25065.8  25065.9  49909.8  49908.7
  1542.11  24227.6  23868.9  0.00245218  0.70551  0.705797  24262.8  24263  48311  48309.9
  1542.36  23463.6  23116.2  0.00237485  0.683262  0.68354  23497.7  23497.8  46787.5  46786.5
  1542.61  22735  22398.4  0.00230111  0.662046  0.662315  22768.1  22768.2  45334.7  45333.7
  1542.86  22039.7  21713.4  0.00223074  0.6418  0.642061  22071.9  22072  43948.3  43947.4
  1543.11  21375.8  21059.3  0.00216354  0.622466  0.622719  21407  21407.1  42624.4  42623.5
  1543.36  20741.3  20434.2  0.00209932  0.60399  0.604236  20771.6  20771.7  41359.2  41358.3
  1543.61  20134.5  19836.4  0.00203791  0.586322  0.586561  20164  20164.1  40149.4  40148.5
  1543.86  19554  19264.5  0.00197915  0.569416  0.569648  19582.6  19582.7  38991.7  38990.8
  1544.11  18998.1  18716.8  0.00192289  0.553229  0.553454  19025.9  19026  37883.2  37882.4
  1544.36  18465.5  18192.1  0.00186898  0.53772  0.537939  18492.5  18492.6  36821.3  36820.4
  1544.61  17954.9  17689.1  0.00181731  0.522853  0.523065  17981.2  17981.4  35803.2  35802.4
  1544.86  17465.2  17206.6  0.00176774  0.508592  0.508799  17490.8  17490.9  34826.7  34825.9
  1545.11  16995.2  16743.6  0.00172017  0.494906  0.495107  17020.1  17020.2  33889.5  33888.7
  1545.36  16543.9  16298.9  0.00167449  0.481763  0.481959  16568.2  16568.2  32989.5  32988.8
  1545.61  16110.2  15871.7  0.0016306  0.469136  0.469326  16133.9  16134  32124.8  32124.1
  1545.86  15693.4  15461  0.00158841  0.456997  0.457183  15716.5  15716.5  31293.6  31292.9
  1546.12  15292.5  15066.1  0.00154783  0.445323  0.445504  15315  15315.1  30494.2  30493.5
  1546.37  14906.7  14686  0.00150879  0.434089  0.434265  14928.6  14928.7  29724.9  29724.3
  1546.62  14535.3  14320.1  0.0014712  0.423274  0.423446  14556.7  14556.8  28984.3  28983.7
  1546.87  14177.6  13967.7  0.00143499  0.412857  0.413025  14198.5  14198.6  28271.1  28270.4
  1547.12  13832.9  13628.1  0.00140011  0.40282  0.402984  13853.3  13853.4  27583.7  27583.1
  1547.37  13500.6  13300.7  0.00136647  0.393143  0.393303  13520.5  13520.6  26921.1  26920.5
  1547.62  13180.1  12985  0.00133403  0.383811  0.383967  13199.6  13199.6  26282  26281.5
  1547.87  12870.9  12680.3  0.00130273  0.374806  0.374958  12889.9  12889.9  25665.4  25664.8
  1548.12  12572.4  12386.2  0.00127252  0.366114  0.366262  12590.9  12591  25070.2  25069.6
  1548.37  12284.1  12102.2  0.00124335  0.35772  0.357865  12302.3  12302.3  24495.4  24494.9
  1548.62  12005.6  11827.9  0.00121516  0.349611  0.349753  12023.4  12023.5  23940.1  23939.6
  1548.87  11736.5  11562.8  0.00118792  0.341774  0.341913  11753.9  11754  23403.5  23403
  1549.12  11476.3  11306.4  0.00116159  0.334197  0.334333  11493.3  11493.4  22884.6  22884.1
  1549.37  11224.7  11058.5  0.00113612  0.326869  0.327002  11241.3  11241.4  22382.9  22382.4
  1549.62  10981.2  10818.6  0.00111148  0.319779  0.319909  10997.5  10997.5  21897.4  21896.9
  1549.87  10745.6  10586.5  0.00108762  0.312917  0.313044  10761.5  10761.5  21427.5  21427
  1550.13  10517.4  10361.7  0.00106453  0.306273  0.306398  10533  10533.1  20972.5  20972
  1550.38  10296.4  10144  0.00104217  0.299838  0.29996  10311.7  10311.8  20531.9  20531.4
  1550.63  10082.3  9933.06  0.0010205  0.293604  0.293723  10097.3  10097.4  20105  20104.5
  1550.88  9874.84  9728.64  0.000999494  0.287561  0.287678  9889.5  9889.55  19691.2  19690.8
  1551.13  9673.68  9530.45  0.000979133  0.281703  0.281818  9688.04  9688.09  19290.1  19289.6
  1551.38  9478.59  9338.25  0.000959388  0.276022  0.276135  9492.66  9492.72  18901  18900.6
  1551.63  9289.33  9151.8  0.000940232  0.270511  0.270621  9303.13  9303.19  18523.7  18523.3
  1551.88  9105.68  8970.87  0.000921644  0.265163  0.265271  9119.21  9119.27  18157.5  18157.1
  1552.13  8927.42  8795.24  0.000903601  0.259972  0.260078  8940.69  8940.74  17802  17801.6
  1552.38  8754.33  8624.72  0.000886082  0.254932  0.255036  8767.35  8767.4  17456.8  17456.5
  1552.63  8586.22  8459.1  0.000869067  0.250037  0.250138  8599  8599.04  17121.6  17121.2
  1552.88  8422.91  8298.2  0.000852537  0.245281  0.24538  8435.44  8435.49  16796  16795.6
  1553.13  8264.2  8141.84  0.000836473  0.240659  0.240757  8276.5  8276.54  16479.5  16479.1
  1553.38  8109.93  7989.86  0.000820859  0.236167  0.236263  8122  8122.05  16171.9  16171.5
  1553.63  7959.93  7842.08  0.000805677  0.231799  0.231893  7971.79  7971.83  15872.8  15872.4
  1553.88  7814.06  7698.36  0.000790912  0.227551  0.227643  7825.7  7825.74  15581.9  15581.5
  1554.14  7672.15  7558.56  0.000776549  0.223419  0.223509  7683.58  7683.62  15298.9  15298.6
  1554.39  7534.07  7422.52  0.000762573  0.219398  0.219487  7545.3  7545.34  15023.6  15023.2
  1554.64  7399.68  7290.12  0.000748971  0.215484  0.215572  7410.71  7410.75  14755.6  14755.3
  1554.89  7268.85  7161.23  0.000735729  0.211674  0.21176  7279.69  7279.73  14494.7  14494.4
  1555.14  7141.45  7035.72  0.000722834  0.207965  0.208049  7152.11  7152.15  14240.7  14240.3
  1555.39  7017.37  6913.48  0.000710276  0.204351  0.204434  7027.84  7027.88  13993.2  13992.9
  1555.64  6896.5  6794.39  0.000698041  0.200831  0.200913  6906.79  6906.83  13752.2  13751.9
  1555.89  6778.71  6678.35  0.00068612  0.197402  0.197482  6788.84  6788.87  13517.3  13517
  1556.14  6663.92  6565.26  0.000674501  0.194059  0.194138  6673.87  6673.91  13288.4  13288.1
  1556.39  6552.02  6455.01  0.000663175  0.1908  0.190878  6561.8  6561.84  13065.3  13065
  1556.64  6442.9  6347.51  0.000652131  0.187623  0.187699  6452.53  6452.57  12847.7  12847.4
  1556.89  6336.49  6242.68  0.00064136  0.184524  0.184599  6345.96  6346  12635.5  12635.2
  1557.14  6232.69  6140.41  0.000630854  0.181501  0.181575  6242.01  6242.04  12428.5  12428.3
  1557.39  6131.42  6040.64  0.000620604  0.178552  0.178625  6140.59  6140.62  12226.6  12226.3
  1557.64  6032.59  5943.28  0.000610601  0.175674  0.175746  6041.62  6041.65  12029.5  12029.3
  1557.89  5936.14  5848.25  0.000600838  0.172865  0.172936  5945.02  5945.05  11837.2  11836.9
  1558.15  5841.97  5755.48  0.000591307  0.170123  0.170192  5850.71  5850.74  11649.4  11649.2
  1558.4  5750.03  5664.89  0.000582001  0.167446  0.167514  5758.63  5758.66  11466.1  11465.8
  1558.65  5660.23  5576.43  0.000572912  0.164831  0.164898  5668.71  5668.74  11287  11286.8
  1558.9  5572.53  5490.02  0.000564035  0.162277  0.162343  5580.87  5580.9  11112.1  11111.9
  1559.15  5486.84  5405.61  0.000555362  0.159782  0.159847  5495.06  5495.09  10941.3  10941
  1559.4  5403.12  5323.12  0.000546888  0.157344  0.157408  5411.21  5411.24  10774.3  10774.1
  1559.65  5321.29  5242.51  0.000538606  0.154961  0.155024  5329.26  5329.29  10611.1  10610.9
  1559.9  5241.31  5163.71  0.00053051  0.152632  0.152694  5249.16  5249.19  10451.6  10451.4
  1560.15  5163.11  5086.67  0.000522596  0.150355  0.150416  5170.85  5170.88  10295.7  10295.5
  1560.4  5086.66  5011.35  0.000514857  0.148128  0.148188  5094.28  5094.31  10143.3  10143
  1560.65  5011.88  4937.68  0.000507289  0.145951  0.14601  5019.4  5019.43  9994.16  9993.94
  1560.9  4938.74  4865.62  0.000499886  0.143821  0.143879  4946.15  4946.18  9848.31  9848.1
  1561.15  4867.19  4795.13  0.000492644  0.141737  0.141795  4874.49  4874.52  9705.64  9705.42
  1561.4  4797.19  4726.16  0.000485558  0.139699  0.139755  4804.38  4804.41  9566.04  9565.83
  1561.65  4728.68  4658.67  0.000478624  0.137704  0.13776  4735.77  4735.8  9429.43  9429.22
  1561.9  4661.63  4592.61  0.000471837  0.135751  0.135806  4668.62  4668.65  9295.72  9295.51
  1562.16  4595.99  4527.94  0.000465194  0.13384  0.133894  4602.89  4602.91  9164.83  9164.63
  1562.41  4531.73  4464.63  0.000458689  0.131968  0.132022  4538.53  4538.56  9036.69  9036.49
  1562.66  4468.8  4402.64  0.000452321  0.130136  0.130189  4475.51  4475.54  8911.21  8911.02
  1562.91  4407.18  4341.93  0.000446083  0.128341  0.128394  4413.8  4413.82  8788.33  8788.14
  1563.16  4346.82  4282.46  0.000439974  0.126584  0.126635  4353.35  4353.37  8667.97  8667.78
  1563.41  4287.69  4224.21  0.000433989  0.124862  0.124913  4294.13  4294.16  8550.07  8549.88
  1563.66  4229.76  4167.14  0.000428126  0.123175  0.123225  4236.12  4236.14  8434.55  8434.36
  1563.91  4173  4111.21  0.00042238  0.121522  0.121571  4179.27  4179.29  8321.36  8321.17
  1564.16  4117.37  4056.41  0.00041675  0.119902  0.119951  4123.56  4123.58  8210.42  8210.24
  1564.41  4062.84  4002.69  0.000411231  0.118314  0.118362  4068.95  4068.97  8101.7  8101.52
  1564.66  4009.39  3950.03  0.000405821  0.116758  0.116805  4015.42  4015.44  7995.11  7994.93
  1564.91  3956.99  3898.4  0.000400516  0.115232  0.115278  3962.94  3962.96  7890.61  7890.44
  1565.16  3905.6  3847.78  0.000395316  0.113735  0.113782  3911.48  3911.5  7788.15  7787.98
  1565.41  3855.21  3798.14  0.000390215  0.112268  0.112314  3861.01  3861.03  7687.67  7687.5
  1565.66  3805.79  3749.45  0.000385213  0.110829  0.110874  3811.52  3811.54  7589.12  7588.95
  1565.91  3757.32  3701.69  0.000380306  0.109417  0.109462  3762.97  3762.99  7492.45  7492.29
  1566.17  3709.76  3654.83  0.000375493  0.108032  0.108076  3715.34  3715.36  7397.62  7397.46
  1566.42  3663.1  3608.86  0.00037077  0.106673  0.106717  3668.61  3668.63  7304.57  7304.41
  1566.67  3617.31  3563.75  0.000366136  0.10534  0.105383  3622.76  3622.78  7213.27  7213.11
  1566.92  3572.38  3519.49  0.000361588  0.104032  0.104074  3577.75  3577.78  7123.67  7123.51
  1567.17  3528.28  3476.04  0.000357124  0.102747  0.102789  3533.59  3533.61  7035.73  7035.57
  1567.42  3484.98  3433.39  0.000352742  0.101487  0.101528  3490.23  3490.25  6949.4  6949.25
  1567.67  3442.49  3391.52  0.00034844  0.100249  0.10029  3447.67  3447.69  6864.66  6864.5
  1567.92  3400.76  3350.41  0.000344217  0.0990339  0.0990741  3405.88  3405.9  6781.45  6781.3
  1568.17  3359.78  3310.04  0.00034007  0.0978408  0.0978805  3364.85  3364.86  6699.74  6699.6
  1568.42  3319.55  3270.4  0.000335997  0.096669  0.0967083  3324.55  3324.57  6619.51  6619.36
  1568.67  3280.03  3231.46  0.000331997  0.0955182  0.095557  3284.97  3284.99  6540.7  6540.56
  1568.92  3241.21  3193.22  0.000328068  0.0943878  0.0944261  3246.09  3246.11  6463.29  6463.15
  1569.17  3203.08  3155.65  0.000324208  0.0932773  0.0933152  3207.9  3207.92  6387.25  6387.11
  1569.42  3165.61  3118.74  0.000320416  0.0921863  0.0922237  3170.38  3170.4  6312.54  6312.41
  1569.67  3128.8  3082.48  0.00031669  0.0911143  0.0911513  3133.52  3133.53  6239.14  6239
  1569.92  3092.63  3046.84  0.000313029  0.0900609  0.0900975  3097.29  3097.31  6167.01  6166.87
  1570.18  3057.08  3011.81  0.000309431  0.0890257  0.0890618  3061.68  3061.7  6096.12  6095.98
  1570.43  3022.13  2977.39  0.000305894  0.0880082  0.0880439  3026.69  3026.71  6026.44  6026.31
  1570.68  2987.79  2943.55  0.000302418  0.087008  0.0870433  2992.29  2992.31  5957.95  5957.82
  1570.93  2954.03  2910.29  0.000299  0.0860248  0.0860597  2958.48  2958.5  5890.63  5890.5
  1571.18  2920.83  2877.59  0.00029564  0.0850582  0.0850927  2925.24  2925.25  5824.43  5824.3
  1571.43  2888.19  2845.43  0.000292337  0.0841077  0.0841418  2892.55  2892.57  5759.35  5759.22
  1571.68  2856.1  2813.81  0.000289088  0.0831731  0.0832068  2860.41  2860.42  5695.35  5695.22
  1571.93  2824.53  2782.72  0.000285893  0.0822539  0.0822873  2828.8  2828.81  5632.41  5632.28
  1572.18  2793.49  2752.13  0.000282751  0.0813499  0.0813829  2797.71  2797.72  5570.51  5570.38
  1572.43  2762.96  2722.05  0.000279661  0.0804608  0.0804934  2767.13  2767.14  5509.62  5509.5
  1572.68  2732.92  2692.46  0.000276621  0.0795861  0.0796184  2737.05  2737.06  5449.72  5449.6
  1572.93  2703.37  2663.35  0.00027363  0.0787256  0.0787575  2707.45  2707.47  5390.8  5390.68
  1573.18  2674.3  2634.7  0.000270687  0.077879  0.0779105  2678.34  2678.35  5332.82  5332.71
  1573.43  2645.69  2606.52  0.000267792  0.0770459  0.0770772  2649.69  2649.7  5275.78  5275.66
  1573.68  2617.54  2578.79  0.000264942  0.0762262  0.0762571  2621.49  2621.51  5219.65  5219.53
  1573.93  2589.84  2551.49  0.000262138  0.0754194  0.07545  2593.75  2593.76  5164.4  5164.29
  1574.19  2562.57  2524.63  0.000259378  0.0746254  0.0746557  2566.44  2566.46  5110.03  5109.92
  1574.44  2535.73  2498.19  0.000256662  0.0738438  0.0738738  2539.56  2539.58  5056.51  5056.4
  1574.69  2509.31  2472.16  0.000253988  0.0730745  0.0731041  2513.1  2513.12  5003.83  5003.72
  1574.94  2483.31  2446.54  0.000251355  0.0723171  0.0723465  2487.06  2487.07  4951.97  4951.86
  1575.19  2457.7  2421.31  0.000248764  0.0715715  0.0716005  2461.41  2461.43  4900.91  4900.8
  1575.44  2432.49  2396.47  0.000246212  0.0708373  0.070866  2436.16  2436.18  4850.63  4850.53
  1575.69  2407.66  2372.01  0.000243699  0.0701143  0.0701427  2411.3  2411.31  4801.13  4801.02
  1575.94  2383.21  2347.93  0.000241224  0.0694023  0.0694305  2386.81  2386.83  4752.37  4752.27
  1576.19  2359.13  2324.21  0.000238787  0.0687012  0.068729  2362.7  2362.71  4704.36  4704.26
  1576.44  2335.42  2300.84  0.000236387  0.0680106  0.0680381  2338.95  2338.96  4657.07  4656.97
  1576.69  2312.06  2277.83  0.000234022  0.0673303  0.0673576  2315.56  2315.57  4610.49  4610.39
  1576.94  2289.05  2255.16  0.000231693  0.0666602  0.0666873  2292.51  2292.52  4564.6  4564.5
  1577.19  2266.38  2232.83  0.000229399  0.0660001  0.0660269  2269.81  2269.82  4519.4  4519.3
  1577.44  2244.05  2210.82  0.000227138  0.0653497  0.0653762  2247.44  2247.45  4474.86  4474.76
  1577.69  2222.04  2189.14  0.000224911  0.0647089  0.0647351  2225.4  2225.41  4430.98  4430.88
  1577.94  2200.36  2167.78  0.000222716  0.0640774  0.0641034  2203.68  2203.7  4387.74  4387.65
  1578.2  2178.99  2146.73  0.000220553  0.0634552  0.0634809  2182.28  2182.3  4345.13  4345.04
  1578.45  2157.93  2125.98  0.000218422  0.062842  0.0628674  2161.19  2161.21  4303.14  4303.05
  1578.7  2137.18  2105.53  0.000216321  0.0622376  0.0622628  2140.41  2140.42  4261.75  4261.66
  1578.95  2116.72  2085.38  0.000214251  0.0616418  0.0616668  2119.92  2119.93  4220.96  4220.87
  1579.2  2096.55  2065.51  0.00021221  0.0610546  0.0610794  2099.73  2099.74  4180.75  4180.66
  1579.45  2076.68  2045.93  0.000210198  0.0604758  0.0605003  2079.82  2079.83  4141.11  4141.02
  1579.7  2057.08  2026.62  0.000208214  0.0599051  0.0599294  2060.19  2060.2  4102.04  4101.95
  1579.95  2037.76  2007.59  0.000206258  0.0593425  0.0593665  2040.84  2040.85  4063.51  4063.42
  1580.2  2018.71  1988.82  0.00020433  0.0587877  0.0588116  2021.77  2021.78  4025.52  4025.43
  1580.45  1999.93  1970.32  0.000202429  0.0582407  0.0582643  2002.95  2002.96  3988.07  3987.98
  1580.7  1981.4  1952.07  0.000200554  0.0577013  0.0577247  1984.4  1984.41  3951.13  3951.04
  1580.95  1963.14  1934.07  0.000198705  0.0571694  0.0571926  1966.11  1966.12  3914.7  3914.62
  1581.2  1945.12  1916.32  0.000196882  0.0566448  0.0566677  1948.07  1948.08  3878.78  3878.69
  1581.45  1927.35  1898.82  0.000195083  0.0561273  0.0561501  1930.27  1930.28  3843.35  3843.26
  1581.7  1909.83  1881.55  0.000193309  0.0556169  0.0556395  1912.72  1912.73  3808.4  3808.31
  1581.95  1892.54  1864.52  0.000191559  0.0551135  0.0551358  1895.4  1895.41  3773.92  3773.84
  1582.21  1875.48  1847.71  0.000189833  0.0546168  0.054639  1878.32  1878.33  3739.91  3739.83
  1582.46  1858.66  1831.14  0.00018813  0.0541269  0.0541488  1861.47  1861.48  3706.36  3706.28
  1582.71  1842.06  1814.78  0.00018645  0.0536435  0.0536652  1844.85  1844.86  3673.26  3673.18
  1582.96  1825.68  1798.65  0.000184792  0.0531665  0.053188  1828.44  1828.45  3640.6  3640.52
  1583.21  1809.52  1782.73  0.000183156  0.0526959  0.0527172  1812.26  1812.27  3608.37  3608.29
  1583.46  1793.57  1767.01  0.000181542  0.0522314  0.0522526  1796.29  1796.3  3576.57  3576.49
  1583.71  1777.83  1751.51  0.000179949  0.0517731  0.0517941  1780.52  1780.53  3545.19  3545.11
  1583.96  1762.3  1736.21  0.000178377  0.0513208  0.0513416  1764.97  1764.98  3514.21  3514.14
  1584.21  1746.97  1721.1  0.000176825  0.0508744  0.0508951  1749.62  1749.63  3483.65  3483.57
  1584.46  1731.84  1706.2  0.000175294  0.0504338  0.0504543  1734.46  1734.47  3453.47  3453.4
  1584.71  1716.91  1691.49  0.000173782  0.0499989  0.0500192  1719.51  1719.52  3423.69  3423.62
  1584.96  1702.16  1676.96  0.00017229  0.0495696  0.0495897  1704.74  1704.75  3394.3  3394.22
  1585.21  1687.61  1662.62  0.000170817  0.0491458  0.0491657  1690.17  1690.18  3365.28  3365.2
  1585.46  1673.24  1648.47  0.000169363  0.0487275  0.0487472  1675.78  1675.79  3336.63  3336.55
  1585.71  1659.06  1634.49  0.000167927  0.0483144  0.048334  1661.57  1661.58  3308.34  3308.27
  1585.96  1645.05  1620.7  0.00016651  0.0479065  0.0479259  1647.55  1647.56  3280.41  3280.34
  1586.22  1631.22  1607.07  0.00016511  0.0475038  0.0475231  1633.7  1633.71  3252.84  3252.77
  1586.47  1617.57  1593.62  0.000163728  0.0471062  0.0471253  1620.02  1620.03  3225.61  3225.54
  1586.72  1604.09  1580.34  0.000162363  0.0467135  0.0467324  1606.52  1606.53  3198.72  3198.65
  1586.97  1590.77  1567.22  0.000161015  0.0463257  0.0463445  1593.18  1593.19  3172.17  3172.1
  1587.22  1577.62  1554.26  0.000159684  0.0459428  0.0459614  1580.01  1580.02  3145.94  3145.87
  1587.47  1564.63  1541.46  0.000158369  0.0455645  0.045583  1567  1567.01  3120.04  3119.97
  1587.72  1551.8  1528.82  0.000157071  0.0451909  0.0452092  1554.15  1554.16  3094.46  3094.39
  1587.97  1539.13  1516.34  0.000155788  0.0448219  0.0448401  1541.46  1541.47  3069.19  3069.12
  1588.22  1526.61  1504.01  0.000154521  0.0444574  0.0444754  1528.92  1528.93  3044.23  3044.16
  1588.47  1514.24  1491.83  0.00015327  0.0440973  0.0441151  1516.54  1516.55  3019.57  3019.5
  1588.72  1502.03  1479.79  0.000152033  0.0437416  0.0437593  1504.31  1504.32  2995.21  2995.14
  1588.97  1489.96  1467.9  0.000150812  0.0433901  0.0434077  1492.22  1492.23  2971.14  2971.08
  1589.22  1478.04  1456.15  0.000149605  0.0430429  0.0430603  1480.28  1480.29  2947.37  2947.3
  1589.47  1466.25  1444.55  0.000148412  0.0426998  0.0427171  1468.48  1468.49  2923.87  2923.81
  1589.72  1454.61  1433.08  0.000147234  0.0423608  0.0423779  1456.82  1456.83  2900.66  2900.6
  1589.97  1443.11  1421.74  0.00014607  0.0420258  0.0420428  1445.3  1445.31  2877.72  2877.66
  1590.23  1431.74  1410.55  0.000144919  0.0416948  0.0417117  1433.92  1433.92  2855.05  2854.99
  1590.48  1420.51  1399.48  0.000143782  0.0413677  0.0413844  1422.67  1422.67  2832.65  2832.59
  1590.73  1409.41  1388.54  0.000142658  0.0410444  0.041061  1411.55  1411.56  2810.52  2810.45
  1590.98  1398.44  1377.73  0.000141548  0.0407249  0.0407414  1400.56  1400.57  2788.64  2788.58
  1591.23  1387.59  1367.05  0.00014045  0.0404091  0.0404254  1389.7  1389.71  2767.01  2766.95
  1591.48  1376.87  1356.49  0.000139365  0.0400969  0.0401132  1378.96  1378.97  2745.64  2745.58
  1591.73  1366.28  1346.05  0.000138293  0.0397884  0.0398045  1368.35  1368.36  2724.51  2724.45
  1591.98  1355.8  1335.73  0.000137233  0.0394834  0.0394994  1357.86  1357.87  2703.62  2703.57
  1592.23  1345.45  1325.53  0.000136185  0.0391819  0.0391977  1347.49  1347.5  2682.98  2682.92
  1592.48  1335.22  1315.45  0.000135149  0.0388838  0.0388996  1337.24  1337.25  2662.57  2662.51
  1592.73  1325.1  1305.48  0.000134125  0.0385892  0.0386048  1327.11  1327.12  2642.39  2642.33
  1592.98  1315.09  1295.62  0.000133112  0.0382978  0.0383133  1317.09  1317.1  2622.44  2622.38
  1593.23  1305.2  1285.88  0.000132111  0.0380098  0.0380252  1307.18  1307.19  2602.72  2602.66
  1593.48  1295.42  1276.24  0.000131121  0.037725  0.0377402  1297.39  1297.39  2583.21  2583.16
  1593.73  1285.75  1266.71  0.000130142  0.0374433  0.0374585  1287.7  1287.71  2563.93  2563.87
  1593.98  1276.19  1257.29  0.000129174  0.0371649  0.0371799  1278.12  1278.13  2544.86  2544.8
  1594.24  1266.73  1247.98  0.000128217  0.0368895  0.0369044  1268.65  1268.66  2526  2525.95
  1594.49  1257.38  1238.76  0.00012727  0.0366171  0.0366319  1259.29  1259.29  2507.35  2507.3
  1594.74  1248.13  1229.65  0.000126334  0.0363478  0.0363625  1250.02  1250.03  2488.91  2488.85
  1594.99  1238.98  1220.64  0.000125408  0.0360814  0.036096  1240.86  1240.87  2470.67  2470.61
  1595.24  1229.94  1211.73  0.000124492  0.035818  0.0358324  1231.8  1231.81  2452.63  2452.57
  1595.49  1220.99  1202.91  0.000123587  0.0355574  0.0355718  1222.84  1222.85  2434.78  2434.73
  1595.74  1212.14  1194.19  0.000122691  0.0352996  0.0353139  1213.98  1213.98  2417.13  2417.08
  1595.99  1203.38  1185.56  0.000121805  0.0350447  0.0350588  1205.21  1205.22  2399.68  2399.62
  1596.24  1194.72  1177.03  0.000120928  0.0347925  0.0348065  1196.54  1196.54  2382.41  2382.35
  1596.49  1186.15  1168.59  0.000120061  0.034543  0.0345569  1187.95  1187.96  2365.32  2365.27
  1596.74  1177.68  1160.24  0.000119203  0.0342961  0.03431  1179.47  1179.47  2348.42  2348.37
  1596.99  1169.29  1151.98  0.000118354  0.034052  0.0340657  1171.07  1171.07  2331.7  2331.65
  1597.24  1161  1143.81  0.000117515  0.0338104  0.033824  1162.76  1162.77  2315.16  2315.1
  1597.49  1152.79  1135.72  0.000116684  0.0335713  0.0335849  1154.54  1154.55  2298.79  2298.74
  1597.74  1144.67  1127.72  0.000115862  0.0333348  0.0333483  1146.41  1146.41  2282.59  2282.54
  1597.99  1136.63  1119.8  0.000115048  0.0331008  0.0331142  1138.36  1138.36  2266.57  2266.52
  1598.25  1128.68  1111.97  0.000114244  0.0328693  0.0328826  1130.39  1130.4  2250.71  2250.66
  1598.5  1120.81  1104.22  0.000113447  0.0326402  0.0326533  1122.51  1122.52  2235.02  2234.97
  1598.75  1113.02  1096.55  0.000112659  0.0324134  0.0324265  1114.72  1114.72  2219.5  2219.45
  1599  1105.32  1088.95  0.000111879  0.032189  0.032202  1107  1107.01  2204.13  2204.08
  1599.25  1097.69  1081.44  0.000111107  0.0319669  0.0319799  1099.36  1099.37  2188.92  2188.88
  1599.5  1090.15  1074.01  0.000110343  0.0317472  0.03176  1091.8  1091.81  2173.87  2173.83
  1599.75  1082.68  1066.65  0.000109587  0.0315296  0.0315424  1084.32  1084.33  2158.98  2158.93
  1600  1075.28  1059.36  0.000108839  0.0313143  0.031327  1076.92  1076.92  2144.24  2144.19